trialType,block,rt,response,trial_index,time_elapsed,word,expectedCategory,expectedCategoryAsDisplayed,leftCategory,rightCategory,correct,question_order
iat,nature | school,363.46,f,1,,forest,nature,nature or school,nature,school,1,
iat,nature | school,594.37,j,2,,breeze,nature,nature or school,nature,school,0,
iat,nature | school,716.59,f,3,,mountain,nature,nature or school,nature,school,1,
iat,nature | school,481.6,j,4,,ocean,nature,nature or school,nature,school,0,
iat,nature | school,494.02,f,5,,tree,nature,nature or school,nature,school,1,
iat,nature | school,569.37,j,6,,ocean,nature,nature or school,nature,school,0,
iat,nature | school,778.51,j,7,,homework,school,nature or school,nature,school,1,
iat,nature | school,636.19,f,8,,ocean,nature,nature or school,nature,school,1,
iat,nature | school,684.8,f,9,,forest,nature,nature or school,nature,school,1,
iat,nature | school,536.27,f,10,,forest,nature,nature or school,nature,school,1,
iat,nature | school,500.17,j,11,,teacher,school,nature or school,nature,school,1,
iat,nature | school,575.51,f,12,,lake,nature,nature or school,nature,school,1,
iat,nature | school,693.84,j,13,,essay,school,nature or school,nature,school,1,
iat,nature | school,644.13,j,14,,teacher,school,nature or school,nature,school,1,
iat,nature | school,488.33,j,15,,mountain,nature,nature or school,nature,school,0,
iat,nature | school,512.43,f,16,,breeze,nature,nature or school,nature,school,1,
iat,nature | school,527.08,j,17,,exam,school,nature or school,nature,school,1,
iat,nature | school,602.88,j,18,,homework,school,nature or school,nature,school,1,
iat,nature | school,674.86,f,19,,campus,school,nature or school,nature,school,0,
iat,nature | school,531.91,j,20,,essay,school,nature or school,nature,school,1,
iat,nature | school,642.49,f,21,,mountain,nature,nature or school,nature,school,1,
iat,nature | school,474.57,j,22,,lecture,school,nature or school,nature,school,1,
iat,nature | school,586.48,j,23,,grade,school,nature or school,nature,school,1,
iat,nature | school,695.74,j,24,,homework,school,nature or school,nature,school,1,
iat,serenity | anxiety,510.05,f,25,,peace,serenity,serenity or anxiety,serenity,anxiety,1,
iat,serenity | anxiety,695.8,j,26,,tension,anxiety,serenity or anxiety,serenity,anxiety,1,
iat,serenity | anxiety,585.88,j,27,,panic,anxiety,serenity or anxiety,serenity,anxiety,1,
iat,serenity | anxiety,395.1,f,28,,peace,serenity,serenity or anxiety,serenity,anxiety,1,
iat,serenity | anxiety,660.22,j,29,,worry,anxiety,serenity or anxiety,serenity,anxiety,1,
iat,serenity | anxiety,632.75,f,30,,relax,serenity,serenity or anxiety,serenity,anxiety,1,
iat,serenity | anxiety,601.97,f,31,,quiet,serenity,serenity or anxiety,serenity,anxiety,1,
iat,serenity | anxiety,683.36,f,32,,soothe,serenity,serenity or anxiety,serenity,anxiety,1,
iat,serenity | anxiety,651.9,f,33,,breathe,serenity,serenity or anxiety,serenity,anxiety,1,
iat,serenity | anxiety,681.06,f,34,,calm,serenity,serenity or anxiety,serenity,anxiety,1,
iat,serenity | anxiety,668.16,j,35,,panic,anxiety,serenity or anxiety,serenity,anxiety,1,
iat,serenity | anxiety,646.61,j,36,,unease,anxiety,serenity or anxiety,serenity,anxiety,1,
iat,serenity | anxiety,647.27,j,37,,alarm,anxiety,serenity or anxiety,serenity,anxiety,1,
iat,serenity | anxiety,607.74,f,38,,peace,serenity,serenity or anxiety,serenity,anxiety,1,
iat,serenity | anxiety,541.09,f,39,,alarm,anxiety,serenity or anxiety,serenity,anxiety,0,
iat,serenity | anxiety,619.78,f,40,,calm,serenity,serenity or anxiety,serenity,anxiety,1,
iat,serenity | anxiety,552.17,j,41,,alarm,anxiety,serenity or anxiety,serenity,anxiety,1,
iat,serenity | anxiety,683.9,f,42,,panic,anxiety,serenity or anxiety,serenity,anxiety,0,
iat,serenity | anxiety,466.83,f,43,,quiet,serenity,serenity or anxiety,serenity,anxiety,1,
iat,serenity | anxiety,466.19,f,44,,relax,serenity,serenity or anxiety,serenity,anxiety,1,
iat,serenity | anxiety,598.5,j,45,,stress,anxiety,serenity or anxiety,serenity,anxiety,1,
iat,serenity | anxiety,561.49,j,46,,alarm,anxiety,serenity or anxiety,serenity,anxiety,1,
iat,serenity | anxiety,532.72,j,47,,stress,anxiety,serenity or anxiety,serenity,anxiety,1,
iat,serenity | anxiety,544.73,f,48,,breathe,serenity,serenity or anxiety,serenity,anxiety,1,
iat,nature or serenity | school or anxiety,572.93,j,49,,nervous,school or anxiety,nature or serenity or school or anxiety,nature or serenity,school or anxiety,1,
iat,nature or serenity | school or anxiety,602.12,f,50,,lake,nature or serenity,nature or serenity or school or anxiety,nature or serenity,school or anxiety,1,
iat,nature or serenity | school or anxiety,740.13,f,51,,peace,nature or serenity,nature or serenity or school or anxiety,nature or serenity,school or anxiety,1,
iat,nature or serenity | school or anxiety,403.7,j,52,,tension,school or anxiety,nature or serenity or school or anxiety,nature or serenity,school or anxiety,1,
iat,nature or serenity | school or anxiety,476.54,f,53,,rest,nature or serenity,nature or serenity or school or anxiety,nature or serenity,school or anxiety,1,
iat,nature or serenity | school or anxiety,634.7,j,54,,nervous,school or anxiety,nature or serenity or school or anxiety,nature or serenity,school or anxiety,1,
iat,nature or serenity | school or anxiety,285.7,j,55,,homework,school or anxiety,nature or serenity or school or anxiety,nature or serenity,school or anxiety,1,
iat,nature or serenity | school or anxiety,539.96,j,56,,class,school or anxiety,nature or serenity or school or anxiety,nature or serenity,school or anxiety,1,
iat,nature or serenity | school or anxiety,639.95,j,57,,campus,school or anxiety,nature or serenity or school or anxiety,nature or serenity,school or anxiety,1,
iat,nature or serenity | school or anxiety,485.67,j,58,,nervous,school or anxiety,nature or serenity or school or anxiety,nature or serenity,school or anxiety,1,
iat,nature or serenity | school or anxiety,321.34,j,59,,alarm,school or anxiety,nature or serenity or school or anxiety,nature or serenity,school or anxiety,1,
iat,nature or serenity | school or anxiety,583.48,j,60,,worry,school or anxiety,nature or serenity or school or anxiety,nature or serenity,school or anxiety,1,
iat,nature or serenity | school or anxiety,671.75,j,61,,lecture,school or anxiety,nature or serenity or school or anxiety,nature or serenity,school or anxiety,1,
iat,nature or serenity | school or anxiety,501.11,f,62,,calm,nature or serenity,nature or serenity or school or anxiety,nature or serenity,school or anxiety,1,
iat,nature or serenity | school or anxiety,452.3,j,63,,worry,school or anxiety,nature or serenity or school or anxiety,nature or serenity,school or anxiety,1,
iat,nature or serenity | school or anxiety,622.16,j,64,,stress,school or anxiety,nature or serenity or school or anxiety,nature or serenity,school or anxiety,1,
iat,nature or serenity | school or anxiety,698.49,j,65,,tension,school or anxiety,nature or serenity or school or anxiety,nature or serenity,school or anxiety,1,
iat,nature or serenity | school or anxiety,742.79,j,66,,campus,school or anxiety,nature or serenity or school or anxiety,nature or serenity,school or anxiety,1,
iat,nature or serenity | school or anxiety,587.99,f,67,,tree,nature or serenity,nature or serenity or school or anxiety,nature or serenity,school or anxiety,1,
iat,nature or serenity | school or anxiety,530.56,j,68,,exam,school or anxiety,nature or serenity or school or anxiety,nature or serenity,school or anxiety,1,
iat,nature or serenity | school or anxiety,469.29,f,69,,peace,nature or serenity,nature or serenity or school or anxiety,nature or serenity,school or anxiety,1,
iat,nature or serenity | school or anxiety,581.99,j,70,,peace,nature or serenity,nature or serenity or school or anxiety,nature or serenity,school or anxiety,0,
iat,nature or serenity | school or anxiety,533.19,f,71,,lake,nature or serenity,nature or serenity or school or anxiety,nature or serenity,school or anxiety,1,
iat,nature or serenity | school or anxiety,594.66,f,72,,ocean,nature or serenity,nature or serenity or school or anxiety,nature or serenity,school or anxiety,1,
iat,nature or serenity | school or anxiety,476.56,j,73,,homework,school or anxiety,nature or serenity or school or anxiety,nature or serenity,school or anxiety,1,
iat,nature or serenity | school or anxiety,604.66,f,74,,forest,nature or serenity,nature or serenity or school or anxiety,nature or serenity,school or anxiety,1,
iat,nature or serenity | school or anxiety,538.23,j,75,,class,school or anxiety,nature or serenity or school or anxiety,nature or serenity,school or anxiety,1,
iat,nature or serenity | school or anxiety,469.7,j,76,,exam,school or anxiety,nature or serenity or school or anxiety,nature or serenity,school or anxiety,1,
iat,nature or serenity | school or anxiety,553.83,j,77,,unease,school or anxiety,nature or serenity or school or anxiety,nature or serenity,school or anxiety,1,
iat,nature or serenity | school or anxiety,576.72,j,78,,unease,school or anxiety,nature or serenity or school or anxiety,nature or serenity,school or anxiety,1,
iat,nature or serenity | school or anxiety,367.24,f,79,,mountain,nature or serenity,nature or serenity or school or anxiety,nature or serenity,school or anxiety,1,
iat,nature or serenity | school or anxiety,863.4,f,80,,gentle,nature or serenity,nature or serenity or school or anxiety,nature or serenity,school or anxiety,1,
iat,nature or serenity | school or anxiety,557.39,f,81,,forest,nature or serenity,nature or serenity or school or anxiety,nature or serenity,school or anxiety,1,
iat,nature or serenity | school or anxiety,351.66,f,82,,class,school or anxiety,nature or serenity or school or anxiety,nature or serenity,school or anxiety,0,
iat,nature or serenity | school or anxiety,593.91,f,83,,calm,nature or serenity,nature or serenity or school or anxiety,nature or serenity,school or anxiety,1,
iat,nature or serenity | school or anxiety,427.53,j,84,,grade,school or anxiety,nature or serenity or school or anxiety,nature or serenity,school or anxiety,1,
iat,nature or serenity | school or anxiety,753.4,f,85,,relax,nature or serenity,nature or serenity or school or anxiety,nature or serenity,school or anxiety,1,
iat,nature or serenity | school or anxiety,611.18,f,86,,relax,nature or serenity,nature or serenity or school or anxiety,nature or serenity,school or anxiety,1,
iat,nature or serenity | school or anxiety,353.67,f,87,,rest,nature or serenity,nature or serenity or school or anxiety,nature or serenity,school or anxiety,1,
iat,nature or serenity | school or anxiety,507.4,j,88,,stress,school or anxiety,nature or serenity or school or anxiety,nature or serenity,school or anxiety,1,
iat,nature or serenity | school or anxiety,562.61,j,89,,tension,school or anxiety,nature or serenity or school or anxiety,nature or serenity,school or anxiety,1,
iat,nature or serenity | school or anxiety,859.93,f,90,,river,nature or serenity,nature or serenity or school or anxiety,nature or serenity,school or anxiety,1,
iat,nature or serenity | school or anxiety,476.54,j,91,,grade,school or anxiety,nature or serenity or school or anxiety,nature or serenity,school or anxiety,1,
iat,nature or serenity | school or anxiety,772.53,f,92,,river,nature or serenity,nature or serenity or school or anxiety,nature or serenity,school or anxiety,1,
iat,nature or serenity | school or anxiety,653.8,j,93,,campus,school or anxiety,nature or serenity or school or anxiety,nature or serenity,school or anxiety,1,
iat,nature or serenity | school or anxiety,762.35,j,94,,worry,school or anxiety,nature or serenity or school or anxiety,nature or serenity,school or anxiety,1,
iat,nature or serenity | school or anxiety,399.27,f,95,,breathe,nature or serenity,nature or serenity or school or anxiety,nature or serenity,school or anxiety,1,
iat,nature or serenity | school or anxiety,616.36,j,96,,tension,school or anxiety,nature or serenity or school or anxiety,nature or serenity,school or anxiety,1,
iat,nature or serenity | school or anxiety,458.31,j,97,,class,school or anxiety,nature or serenity or school or anxiety,nature or serenity,school or anxiety,1,
iat,nature or serenity | school or anxiety,766.22,f,98,,forest,nature or serenity,nature or serenity or school or anxiety,nature or serenity,school or anxiety,1,
iat,nature or serenity | school or anxiety,588.34,j,99,,tension,school or anxiety,nature or serenity or school or anxiety,nature or serenity,school or anxiety,1,
iat,nature or serenity | school or anxiety,629.15,j,100,,fear,school or anxiety,nature or serenity or school or anxiety,nature or serenity,school or anxiety,1,
iat,nature or serenity | school or anxiety,717.92,j,101,,teacher,school or anxiety,nature or serenity or school or anxiety,nature or serenity,school or anxiety,1,
iat,nature or serenity | school or anxiety,613.97,f,102,,forest,nature or serenity,nature or serenity or school or anxiety,nature or serenity,school or anxiety,1,
iat,nature or serenity | school or anxiety,510.18,j,103,,exam,school or anxiety,nature or serenity or school or anxiety,nature or serenity,school or anxiety,1,
iat,nature or serenity | school or anxiety,281.43,j,104,,unease,school or anxiety,nature or serenity or school or anxiety,nature or serenity,school or anxiety,1,
iat,nature or serenity | school or anxiety,486.31,j,105,,lecture,school or anxiety,nature or serenity or school or anxiety,nature or serenity,school or anxiety,1,
iat,nature or serenity | school or anxiety,255.47,j,106,,essay,school or anxiety,nature or serenity or school or anxiety,nature or serenity,school or anxiety,1,
iat,nature or serenity | school or anxiety,520.18,j,107,,unease,school or anxiety,nature or serenity or school or anxiety,nature or serenity,school or anxiety,1,
iat,nature or serenity | school or anxiety,617.39,f,108,,forest,nature or serenity,nature or serenity or school or anxiety,nature or serenity,school or anxiety,1,
iat,nature or serenity | school or anxiety,585.38,f,109,,ocean,nature or serenity,nature or serenity or school or anxiety,nature or serenity,school or anxiety,1,
iat,nature or serenity | school or anxiety,488.91,f,110,,meadow,nature or serenity,nature or serenity or school or anxiety,nature or serenity,school or anxiety,1,
iat,nature or serenity | school or anxiety,674.42,j,111,,exam,school or anxiety,nature or serenity or school or anxiety,nature or serenity,school or anxiety,1,
iat,nature or serenity | school or anxiety,780.45,f,112,,ocean,nature or serenity,nature or serenity or school or anxiety,nature or serenity,school or anxiety,1,
iat,nature or anxiety | school or serenity,474.81,f,113,,homework,school or serenity,nature or anxiety or school or serenity,nature or anxiety,school or serenity,0,
iat,nature or anxiety | school or serenity,517.26,j,114,,relax,school or serenity,nature or anxiety or school or serenity,nature or anxiety,school or serenity,1,
iat,nature or anxiety | school or serenity,498.66,f,115,,unease,nature or anxiety,nature or anxiety or school or serenity,nature or anxiety,school or serenity,1,
iat,nature or anxiety | school or serenity,954.55,f,116,,unease,nature or anxiety,nature or anxiety or school or serenity,nature or anxiety,school or serenity,1,
iat,nature or anxiety | school or serenity,577.31,f,117,,ocean,nature or anxiety,nature or anxiety or school or serenity,nature or anxiety,school or serenity,1,
iat,nature or anxiety | school or serenity,515.43,j,118,,campus,school or serenity,nature or anxiety or school or serenity,nature or anxiety,school or serenity,1,
iat,nature or anxiety | school or serenity,542.78,f,119,,forest,nature or anxiety,nature or anxiety or school or serenity,nature or anxiety,school or serenity,1,
iat,nature or anxiety | school or serenity,628.33,f,120,,tension,nature or anxiety,nature or anxiety or school or serenity,nature or anxiety,school or serenity,1,
iat,nature or anxiety | school or serenity,728.82,f,121,,forest,nature or anxiety,nature or anxiety or school or serenity,nature or anxiety,school or serenity,1,
iat,nature or anxiety | school or serenity,580.57,f,122,,ocean,nature or anxiety,nature or anxiety or school or serenity,nature or anxiety,school or serenity,1,
iat,nature or anxiety | school or serenity,684.25,j,123,,forest,nature or anxiety,nature or anxiety or school or serenity,nature or anxiety,school or serenity,0,
iat,nature or anxiety | school or serenity,540.52,j,124,,soothe,school or serenity,nature or anxiety or school or serenity,nature or anxiety,school or serenity,1,
iat,nature or anxiety | school or serenity,691.45,f,125,,forest,nature or anxiety,nature or anxiety or school or serenity,nature or anxiety,school or serenity,1,
iat,nature or anxiety | school or serenity,543.61,f,126,,panic,nature or anxiety,nature or anxiety or school or serenity,nature or anxiety,school or serenity,1,
iat,nature or anxiety | school or serenity,518.14,j,127,,peace,school or serenity,nature or anxiety or school or serenity,nature or anxiety,school or serenity,1,
iat,nature or anxiety | school or serenity,522.61,f,128,,unease,nature or anxiety,nature or anxiety or school or serenity,nature or anxiety,school or serenity,1,
iat,nature or anxiety | school or serenity,812.17,j,129,,breathe,school or serenity,nature or anxiety or school or serenity,nature or anxiety,school or serenity,1,
iat,nature or anxiety | school or serenity,662.35,f,130,,mountain,nature or anxiety,nature or anxiety or school or serenity,nature or anxiety,school or serenity,1,
iat,nature or anxiety | school or serenity,596.0,f,131,,ocean,nature or anxiety,nature or anxiety or school or serenity,nature or anxiety,school or serenity,1,
iat,nature or anxiety | school or serenity,884.37,j,132,,relax,school or serenity,nature or anxiety or school or serenity,nature or anxiety,school or serenity,1,
iat,nature or anxiety | school or serenity,475.65,j,133,,breathe,school or serenity,nature or anxiety or school or serenity,nature or anxiety,school or serenity,1,
iat,nature or anxiety | school or serenity,966.28,j,134,,breathe,school or serenity,nature or anxiety or school or serenity,nature or anxiety,school or serenity,1,
iat,nature or anxiety | school or serenity,700.88,j,135,,gentle,school or serenity,nature or anxiety or school or serenity,nature or anxiety,school or serenity,1,
iat,nature or anxiety | school or serenity,838.2,f,136,,fear,nature or anxiety,nature or anxiety or school or serenity,nature or anxiety,school or serenity,1,
iat,nature or anxiety | school or serenity,756.78,f,137,,lake,nature or anxiety,nature or anxiety or school or serenity,nature or anxiety,school or serenity,1,
iat,nature or anxiety | school or serenity,738.19,f,138,,lake,nature or anxiety,nature or anxiety or school or serenity,nature or anxiety,school or serenity,1,
iat,nature or anxiety | school or serenity,901.19,j,139,,lecture,school or serenity,nature or anxiety or school or serenity,nature or anxiety,school or serenity,1,
iat,nature or anxiety | school or serenity,574.13,j,140,,teacher,school or serenity,nature or anxiety or school or serenity,nature or anxiety,school or serenity,1,
iat,nature or anxiety | school or serenity,510.5,j,141,,relax,school or serenity,nature or anxiety or school or serenity,nature or anxiety,school or serenity,1,
iat,nature or anxiety | school or serenity,693.86,j,142,,calm,school or serenity,nature or anxiety or school or serenity,nature or anxiety,school or serenity,1,
iat,nature or anxiety | school or serenity,781.58,j,143,,homework,school or serenity,nature or anxiety or school or serenity,nature or anxiety,school or serenity,1,
iat,nature or anxiety | school or serenity,680.49,f,144,,worry,nature or anxiety,nature or anxiety or school or serenity,nature or anxiety,school or serenity,1,
iat,nature or anxiety | school or serenity,809.59,j,145,,breathe,school or serenity,nature or anxiety or school or serenity,nature or anxiety,school or serenity,1,
iat,nature or anxiety | school or serenity,604.17,j,146,,campus,school or serenity,nature or anxiety or school or serenity,nature or anxiety,school or serenity,1,
iat,nature or anxiety | school or serenity,783.95,f,147,,ocean,nature or anxiety,nature or anxiety or school or serenity,nature or anxiety,school or serenity,1,
iat,nature or anxiety | school or serenity,370.95,j,148,,campus,school or serenity,nature or anxiety or school or serenity,nature or anxiety,school or serenity,1,
iat,nature or anxiety | school or serenity,824.58,j,149,,homework,school or serenity,nature or anxiety or school or serenity,nature or anxiety,school or serenity,1,
iat,nature or anxiety | school or serenity,730.72,f,150,,ocean,nature or anxiety,nature or anxiety or school or serenity,nature or anxiety,school or serenity,1,
iat,nature or anxiety | school or serenity,663.41,j,151,,exam,school or serenity,nature or anxiety or school or serenity,nature or anxiety,school or serenity,1,
iat,nature or anxiety | school or serenity,692.49,f,152,,unease,nature or anxiety,nature or anxiety or school or serenity,nature or anxiety,school or serenity,1,
iat,nature or anxiety | school or serenity,580.28,f,153,,alarm,nature or anxiety,nature or anxiety or school or serenity,nature or anxiety,school or serenity,1,
iat,nature or anxiety | school or serenity,862.25,f,154,,stress,nature or anxiety,nature or anxiety or school or serenity,nature or anxiety,school or serenity,1,
iat,nature or anxiety | school or serenity,515.39,j,155,,lecture,school or serenity,nature or anxiety or school or serenity,nature or anxiety,school or serenity,1,
iat,nature or anxiety | school or serenity,657.05,j,156,,homework,school or serenity,nature or anxiety or school or serenity,nature or anxiety,school or serenity,1,
iat,nature or anxiety | school or serenity,684.17,j,157,,gentle,school or serenity,nature or anxiety or school or serenity,nature or anxiety,school or serenity,1,
iat,nature or anxiety | school or serenity,735.8,f,158,,mountain,nature or anxiety,nature or anxiety or school or serenity,nature or anxiety,school or serenity,1,
iat,nature or anxiety | school or serenity,890.48,f,159,,tension,nature or anxiety,nature or anxiety or school or serenity,nature or anxiety,school or serenity,1,
iat,nature or anxiety | school or serenity,712.23,f,160,,nervous,nature or anxiety,nature or anxiety or school or serenity,nature or anxiety,school or serenity,1,
iat,nature or anxiety | school or serenity,684.83,j,161,,lecture,school or serenity,nature or anxiety or school or serenity,nature or anxiety,school or serenity,1,
iat,nature or anxiety | school or serenity,769.99,j,162,,campus,school or serenity,nature or anxiety or school or serenity,nature or anxiety,school or serenity,1,
iat,nature or anxiety | school or serenity,546.35,f,163,,nervous,nature or anxiety,nature or anxiety or school or serenity,nature or anxiety,school or serenity,1,
iat,nature or anxiety | school or serenity,746.66,f,164,,mountain,nature or anxiety,nature or anxiety or school or serenity,nature or anxiety,school or serenity,1,
iat,nature or anxiety | school or serenity,620.95,j,165,,relax,school or serenity,nature or anxiety or school or serenity,nature or anxiety,school or serenity,1,
iat,nature or anxiety | school or serenity,476.44,j,166,,tree,nature or anxiety,nature or anxiety or school or serenity,nature or anxiety,school or serenity,0,
iat,nature or anxiety | school or serenity,620.92,j,167,,stress,nature or anxiety,nature or anxiety or school or serenity,nature or anxiety,school or serenity,0,
iat,nature or anxiety | school or serenity,606.96,f,168,,tension,nature or anxiety,nature or anxiety or school or serenity,nature or anxiety,school or serenity,1,
iat,nature or anxiety | school or serenity,652.19,j,169,,calm,school or serenity,nature or anxiety or school or serenity,nature or anxiety,school or serenity,1,
iat,nature or anxiety | school or serenity,785.75,f,170,,tension,nature or anxiety,nature or anxiety or school or serenity,nature or anxiety,school or serenity,1,
iat,nature or anxiety | school or serenity,813.94,j,171,,soothe,school or serenity,nature or anxiety or school or serenity,nature or anxiety,school or serenity,1,
iat,nature or anxiety | school or serenity,827.65,j,172,,meadow,nature or anxiety,nature or anxiety or school or serenity,nature or anxiety,school or serenity,0,
iat,nature or anxiety | school or serenity,783.54,f,173,,stress,nature or anxiety,nature or anxiety or school or serenity,nature or anxiety,school or serenity,1,
iat,nature or anxiety | school or serenity,911.06,f,174,,meadow,nature or anxiety,nature or anxiety or school or serenity,nature or anxiety,school or serenity,1,
iat,nature or anxiety | school or serenity,912.13,j,175,,essay,school or serenity,nature or anxiety or school or serenity,nature or anxiety,school or serenity,1,
iat,nature or anxiety | school or serenity,653.72,j,176,,rest,school or serenity,nature or anxiety or school or serenity,nature or anxiety,school or serenity,1,
Questionnaire,,,"{""question1"": ""2"", ""question2"": ""5"", ""question3"": ""1"", ""question4"": 3, ""question5"": null, ""question6"": 5, ""question7"": 4}",177,,,,,,,,Q1-Q7
