trial_type,block,rt,response,trial_index,time_elapsed,word,expectedCategory,expectedCategoryAsDisplayed,leftCategory,rightCategory,correct,question_order
iat,nature | school,638.19,j,1,,class,school,nature or school,nature,school,1,
iat,nature | school,603.31,f,2,,tree,nature,nature or school,nature,school,1,
iat,nature | school,NA,NA,3,,homework,school,nature or school,nature,school,NA,
iat,nature | school,564.68,j,4,,teacher,school,nature or school,nature,school,1,
iat,nature | school,682.81,j,5,,class,school,nature or school,nature,school,1,
iat,nature | school,426.05,j,6,,grade,school,nature or school,nature,school,1,
iat,nature | school,590.92,f,7,,forest,nature,nature or school,nature,school,1,
iat,nature | school,636.35,f,8,,breeze,nature,nature or school,nature,school,1,
iat,nature | school,650.2,f,9,,essay,school,nature or school,nature,school,0,
iat,nature | school,353.77,f,10,,breeze,nature,nature or school,nature,school,1,
iat,nature | school,622.09,f,11,,breeze,nature,nature or school,nature,school,1,
iat,nature | school,515.53,f,12,,meadow,nature,nature or school,nature,school,1,
iat,nature | school,624.01,j,13,,teacher,school,nature or school,nature,school,1,
iat,nature | school,762.23,j,14,,campus,school,nature or school,nature,school,1,
iat,nature | school,456.76,j,15,,lecture,school,nature or school,nature,school,1,
iat,nature | school,693.65,f,16,,forest,nature,nature or school,nature,school,1,
iat,nature | school,614.72,j,17,,campus,school,nature or school,nature,school,1,
iat,nature | school,659.6,j,18,,lecture,school,nature or school,nature,school,1,
iat,nature | school,467.25,j,19,,campus,school,nature or school,nature,school,1,
iat,nature | school,459.09,f,20,,river,nature,nature or school,nature,school,1,
iat,nature | school,NA,NA,21,,breeze,nature,nature or school,nature,school,NA,
iat,nature | school,589.66,f,22,,forest,nature,nature or school,nature,school,1,
iat,nature | school,764.7,j,23,,homework,school,nature or school,nature,school,1,
iat,nature | school,520.81,f,24,,meadow,nature,nature or school,nature,school,1,
iat,serenity | anxiety,515.46,j,25,,panic,anxiety,serenity or anxiety,serenity,anxiety,1,
iat,serenity | anxiety,380.12,f,26,,gentle,serenity,serenity or anxiety,serenity,anxiety,1,
iat,serenity | anxiety,427.15,j,27,,unease,anxiety,serenity or anxiety,serenity,anxiety,1,
iat,serenity | anxiety,608.53,f,28,,gentle,serenity,serenity or anxiety,serenity,anxiety,1,
iat,serenity | anxiety,545.29,f,29,,gentle,serenity,serenity or anxiety,serenity,anxiety,1,
iat,serenity | anxiety,621.34,f,30,,breathe,serenity,serenity or anxiety,serenity,anxiety,1,
iat,serenity | anxiety,612.21,f,31,,quiet,serenity,serenity or anxiety,serenity,anxiety,1,
iat,serenity | anxiety,516.56,f,32,,gentle,serenity,serenity or anxiety,serenity,anxiety,1,
iat,serenity | anxiety,441.33,j,33,,panic,anxiety,serenity or anxiety,serenity,anxiety,1,
iat,serenity | anxiety,579.53,j,34,,nervous,anxiety,serenity or anxiety,serenity,anxiety,1,
iat,serenity | anxiety,535.11,j,35,,unease,anxiety,serenity or anxiety,serenity,anxiety,1,
iat,serenity | anxiety,637.76,f,36,,peace,serenity,serenity or anxiety,serenity,anxiety,1,
iat,serenity | anxiety,583.29,j,37,,nervous,anxiety,serenity or anxiety,serenity,anxiety,1,
iat,serenity | anxiety,557.9,j,38,,tension,anxiety,serenity or anxiety,serenity,anxiety,1,
iat,serenity | anxiety,581.31,j,39,,panic,anxiety,serenity or anxiety,serenity,anxiety,1,
iat,serenity | anxiety,653.12,j,40,,stress,anxiety,serenity or anxiety,serenity,anxiety,1,
iat,serenity | anxiety,617.28,f,41,,quiet,serenity,serenity or anxiety,serenity,anxiety,1,
iat,serenity | anxiety,709.81,f,42,,relax,serenity,serenity or anxiety,serenity,anxiety,1,
iat,serenity | anxiety,546.79,f,43,,breathe,serenity,serenity or anxiety,serenity,anxiety,1,
iat,serenity | anxiety,735.2,j,44,,alarm,anxiety,serenity or anxiety,serenity,anxiety,1,
iat,serenity | anxiety,490.65,j,45,,worry,anxiety,serenity or anxiety,serenity,anxiety,1,
iat,serenity | anxiety,808.0,f,46,,relax,serenity,serenity or anxiety,serenity,anxiety,1,
iat,serenity | anxiety,686.28,j,47,,fear,anxiety,serenity or anxiety,serenity,anxiety,1,
iat,serenity | anxiety,653.79,f,48,,gentle,serenity,serenity or anxiety,serenity,anxiety,1,
iat,nature or anxiety | school or serenity,601.44,j,49,,relax,school or serenity,nature or anxiety or school or serenity,nature or anxiety,school or serenity,1,
iat,nature or anxiety | school or serenity,487.36,j,50,,exam,school or serenity,nature or anxiety or school or serenity,nature or anxiety,school or serenity,1,
iat,nature or anxiety | school or serenity,647.65,j,51,,gentle,school or serenity,nature or anxiety or school or serenity,nature or anxiety,school or serenity,1,
iat,nature or anxiety | school or serenity,635.91,j,52,,rest,school or serenity,nature or anxiety or school or serenity,nature or anxiety,school or serenity,1,
iat,nature or anxiety | school or serenity,662.6,f,53,,mountain,nature or anxiety,nature or anxiety or school or serenity,nature or anxiety,school or serenity,1,
iat,nature or anxiety | school or serenity,777.61,f,54,,lake,nature or anxiety,nature or anxiety or school or serenity,nature or anxiety,school or serenity,1,
iat,nature or anxiety | school or serenity,758.35,f,55,,unease,nature or anxiety,nature or anxiety or school or serenity,nature or anxiety,school or serenity,1,
iat,nature or anxiety | school or serenity,743.59,f,56,,worry,nature or anxiety,nature or anxiety or school or serenity,nature or anxiety,school or serenity,1,
iat,nature or anxiety | school or serenity,658.5,j,57,,gentle,school or serenity,nature or anxiety or school or serenity,nature or anxiety,school or serenity,1,
iat,nature or anxiety | school or serenity,411.05,j,58,,soothe,school or serenity,nature or anxiety or school or serenity,nature or anxiety,school or serenity,1,
iat,nature or anxiety | school or serenity,551.48,f,59,,alarm,nature or anxiety,nature or anxiety or school or serenity,nature or anxiety,school or serenity,1,
iat,nature or anxiety | school or serenity,909.4,j,60,,ocean,nature or anxiety,nature or anxiety or school or serenity,nature or anxiety,school or serenity,0,
iat,nature or anxiety | school or serenity,643.44,j,61,,breathe,school or serenity,nature or anxiety or school or serenity,nature or anxiety,school or serenity,1,
iat,nature or anxiety | school or serenity,859.8,f,62,,mountain,nature or anxiety,nature or anxiety or school or serenity,nature or anxiety,school or serenity,1,
iat,nature or anxiety | school or serenity,816.01,j,63,,essay,school or serenity,nature or anxiety or school or serenity,nature or anxiety,school or serenity,1,
iat,nature or anxiety | school or serenity,727.63,f,64,,panic,nature or anxiety,nature or anxiety or school or serenity,nature or anxiety,school or serenity,1,
iat,nature or anxiety | school or serenity,640.81,f,65,,nervous,nature or anxiety,nature or anxiety or school or serenity,nature or anxiety,school or serenity,1,
iat,nature or anxiety | school or serenity,634.6,j,66,,alarm,nature or anxiety,nature or anxiety or school or serenity,nature or anxiety,school or serenity,0,
iat,nature or anxiety | school or serenity,759.92,f,67,,river,nature or anxiety,nature or anxiety or school or serenity,nature or anxiety,school or serenity,1,
iat,nature or anxiety | school or serenity,583.93,f,68,,meadow,nature or anxiety,nature or anxiety or school or serenity,nature or anxiety,school or serenity,1,
iat,nature or anxiety | school or serenity,627.69,f,69,,meadow,nature or anxiety,nature or anxiety or school or serenity,nature or anxiety,school or serenity,1,
iat,nature or anxiety | school or serenity,814.35,j,70,,rest,school or serenity,nature or anxiety or school or serenity,nature or anxiety,school or serenity,1,
iat,nature or anxiety | school or serenity,839.49,j,71,,breathe,school or serenity,nature or anxiety or school or serenity,nature or anxiety,school or serenity,1,
iat,nature or anxiety | school or serenity,323.02,j,72,,lecture,school or serenity,nature or anxiety or school or serenity,nature or anxiety,school or serenity,1,
iat,nature or anxiety | school or serenity,684.2,f,73,,nervous,nature or anxiety,nature or anxiety or school or serenity,nature or anxiety,school or serenity,1,
iat,nature or anxiety | school or serenity,551.47,j,74,,class,school or serenity,nature or anxiety or school or serenity,nature or anxiety,school or serenity,1,
iat,nature or anxiety | school or serenity,540.35,j,75,,peace,school or serenity,nature or anxiety or school or serenity,nature or anxiety,school or serenity,1,
iat,nature or anxiety | school or serenity,787.07,f,76,,nervous,nature or anxiety,nature or anxiety or school or serenity,nature or anxiety,school or serenity,1,
iat,nature or anxiety | school or serenity,576.79,f,77,,tension,nature or anxiety,nature or anxiety or school or serenity,nature or anxiety,school or serenity,1,
iat,nature or anxiety | school or serenity,844.52,j,78,,nervous,nature or anxiety,nature or anxiety or school or serenity,nature or anxiety,school or serenity,0,
iat,nature or anxiety | school or serenity,600.09,f,79,,mountain,nature or anxiety,nature or anxiety or school or serenity,nature or anxiety,school or serenity,1,
iat,nature or anxiety | school or serenity,673.87,f,80,,nervous,nature or anxiety,nature or anxiety or school or serenity,nature or anxiety,school or serenity,1,
iat,nature or anxiety | school or serenity,700.73,j,81,,teacher,school or serenity,nature or anxiety or school or serenity,nature or anxiety,school or serenity,1,
iat,nature or anxiety | school or serenity,566.83,j,82,,exam,school or serenity,nature or anxiety or school or serenity,nature or anxiety,school or serenity,1,
iat,nature or anxiety | school or serenity,657.88,j,83,,rest,school or serenity,nature or anxiety or school or serenity,nature or anxiety,school or serenity,1,
iat,nature or anxiety | school or serenity,575.97,f,84,,lecture,school or serenity,nature or anxiety or school or serenity,nature or anxiety,school or serenity,0,
iat,nature or anxiety | school or serenity,718.65,f,85,,panic,nature or anxiety,nature or anxiety or school or serenity,nature or anxiety,school or serenity,1,
iat,nature or anxiety | school or serenity,728.79,j,86,,peace,school or serenity,nature or anxiety or school or serenity,nature or anxiety,school or serenity,1,
iat,nature or anxiety | school or serenity,526.31,j,87,,class,school or serenity,nature or anxiety or school or serenity,nature or anxiety,school or serenity,1,
iat,nature or anxiety | school or serenity,635.86,j,88,,panic,nature or anxiety,nature or anxiety or school or serenity,nature or anxiety,school or serenity,0,
iat,nature or anxiety | school or serenity,893.34,f,89,,unease,nature or anxiety,nature or anxiety or school or serenity,nature or anxiety,school or serenity,1,
iat,nature or anxiety | school or serenity,709.28,f,90,,worry,nature or anxiety,nature or anxiety or school or serenity,nature or anxiety,school or serenity,1,
iat,nature or anxiety | school or serenity,769.86,f,91,,meadow,nature or anxiety,nature or anxiety or school or serenity,nature or anxiety,school or serenity,1,
iat,nature or anxiety | school or serenity,603.03,j,92,,essay,school or serenity,nature or anxiety or school or serenity,nature or anxiety,school or serenity,1,
iat,nature or anxiety | school or serenity,885.98,f,93,,alarm,nature or anxiety,nature or anxiety or school or serenity,nature or anxiety,school or serenity,1,
iat,nature or anxiety | school or serenity,840.83,j,94,,essay,school or serenity,nature or anxiety or school or serenity,nature or anxiety,school or serenity,1,
iat,nature or anxiety | school or serenity,543.62,f,95,,ocean,nature or anxiety,nature or anxiety or school or serenity,nature or anxiety,school or serenity,1,
iat,nature or anxiety | school or serenity,570.21,j,96,,quiet,school or serenity,nature or anxiety or school or serenity,nature or anxiety,school or serenity,1,
iat,nature or anxiety | school or serenity,652.01,f,97,,lake,nature or anxiety,nature or anxiety or school or serenity,nature or anxiety,school or serenity,1,
iat,nature or anxiety | school or serenity,555.7,f,98,,river,nature or anxiety,nature or anxiety or school or serenity,nature or anxiety,school or serenity,1,
iat,nature or anxiety | school or serenity,729.55,j,99,,essay,school or serenity,nature or anxiety or school or serenity,nature or anxiety,school or serenity,1,
iat,nature or anxiety | school or serenity,560.82,f,100,,mountain,nature or anxiety,nature or anxiety or school or serenity,nature or anxiety,school or serenity,1,
iat,nature or anxiety | school or serenity,510.66,j,101,,peace,school or serenity,nature or anxiety or school or serenity,nature or anxiety,school or serenity,1,
iat,nature or anxiety | school or serenity,816.27,j,102,,grade,school or serenity,nature or anxiety or school or serenity,nature or anxiety,school or serenity,1,
iat,nature or anxiety | school or serenity,850.65,f,103,,ocean,nature or anxiety,nature or anxiety or school or serenity,nature or anxiety,school or serenity,1,
iat,nature or anxiety | school or serenity,587.01,f,104,,stress,nature or anxiety,nature or anxiety or school or serenity,nature or anxiety,school or serenity,1,
iat,nature or anxiety | school or serenity,665.34,f,105,,nervous,nature or anxiety,nature or anxiety or school or serenity,nature or anxiety,school or serenity,1,
iat,nature or anxiety | school or serenity,627.83,f,106,,teacher,school or serenity,nature or anxiety or school or serenity,nature or anxiety,school or serenity,0,
iat,nature or anxiety | school or serenity,727.69,j,107,,relax,school or serenity,nature or anxiety or school or serenity,nature or anxiety,school or serenity,1,
iat,nature or anxiety | school or serenity,586.99,f,108,,unease,nature or anxiety,nature or anxiety or school or serenity,nature or anxiety,school or serenity,1,
iat,nature or anxiety | school or serenity,668.3,j,109,,quiet,school or serenity,nature or anxiety or school or serenity,nature or anxiety,school or serenity,1,
iat,nature or anxiety | school or serenity,745.71,j,110,,teacher,school or serenity,nature or anxiety or school or serenity,nature or anxiety,school or serenity,1,
iat,nature or anxiety | school or serenity,729.4,f,111,,nervous,nature or anxiety,nature or anxiety or school or serenity,nature or anxiety,school or serenity,1,
iat,nature or anxiety | school or serenity,754.96,j,112,,grade,school or serenity,nature or anxiety or school or serenity,nature or anxiety,school or serenity,1,
iat,nature or serenity | school or anxiety,570.32,j,113,,lecture,school or anxiety,nature or serenity or school or anxiety,nature or serenity,school or anxiety,1,
iat,nature or serenity | school or anxiety,650.78,j,114,,alarm,school or anxiety,nature or serenity or school or anxiety,nature or serenity,school or anxiety,1,
iat,nature or serenity | school or anxiety,437.15,j,115,,homework,school or anxiety,nature or serenity or school or anxiety,nature or serenity,school or anxiety,1,
iat,nature or serenity | school or anxiety,514.81,j,116,,unease,school or anxiety,nature or serenity or school or anxiety,nature or serenity,school or anxiety,1,
iat,nature or serenity | school or anxiety,555.66,j,117,,essay,school or anxiety,nature or serenity or school or anxiety,nature or serenity,school or anxiety,1,
iat,nature or serenity | school or anxiety,641.37,j,118,,essay,school or anxiety,nature or serenity or school or anxiety,nature or serenity,school or anxiety,1,
iat,nature or serenity | school or anxiety,425.74,f,119,,relax,nature or serenity,nature or serenity or school or anxiety,nature or serenity,school or anxiety,1,
iat,nature or serenity | school or anxiety,605.59,j,120,,tension,school or anxiety,nature or serenity or school or anxiety,nature or serenity,school or anxiety,1,
iat,nature or serenity | school or anxiety,709.72,j,121,,unease,school or anxiety,nature or serenity or school or anxiety,nature or serenity,school or anxiety,1,
iat,nature or serenity | school or anxiety,523.56,f,122,,meadow,nature or serenity,nature or serenity or school or anxiety,nature or serenity,school or anxiety,1,
iat,nature or serenity | school or anxiety,554.89,f,123,,calm,nature or serenity,nature or serenity or school or anxiety,nature or serenity,school or anxiety,1,
iat,nature or serenity | school or anxiety,858.96,f,124,,peace,nature or serenity,nature or serenity or school or anxiety,nature or serenity,school or anxiety,1,
iat,nature or serenity | school or anxiety,404.84,j,125,,fear,school or anxiety,nature or serenity or school or anxiety,nature or serenity,school or anxiety,1,
iat,nature or serenity | school or anxiety,722.69,f,126,,lake,nature or serenity,nature or serenity or school or anxiety,nature or serenity,school or anxiety,1,
iat,nature or serenity | school or anxiety,523.04,j,127,,essay,school or anxiety,nature or serenity or school or anxiety,nature or serenity,school or anxiety,1,
iat,nature or serenity | school or anxiety,742.16,j,128,,worry,school or anxiety,nature or serenity or school or anxiety,nature or serenity,school or anxiety,1,
iat,nature or serenity | school or anxiety,473.09,j,129,,unease,school or anxiety,nature or serenity or school or anxiety,nature or serenity,school or anxiety,1,
iat,nature or serenity | school or anxiety,673.19,f,130,,gentle,nature or serenity,nature or serenity or school or anxiety,nature or serenity,school or anxiety,1,
iat,nature or serenity | school or anxiety,461.73,f,131,,gentle,nature or serenity,nature or serenity or school or anxiety,nature or serenity,school or anxiety,1,
iat,nature or serenity | school or anxiety,509.39,j,132,,grade,school or anxiety,nature or serenity or school or anxiety,nature or serenity,school or anxiety,1,
iat,nature or serenity | school or anxiety,722.87,f,133,,river,nature or serenity,nature or serenity or school or anxiety,nature or serenity,school or anxiety,1,
iat,nature or serenity | school or anxiety,434.78,f,134,,gentle,nature or serenity,nature or serenity or school or anxiety,nature or serenity,school or anxiety,1,
iat,nature or serenity | school or anxiety,625.2,f,135,,rest,nature or serenity,nature or serenity or school or anxiety,nature or serenity,school or anxiety,1,
iat,nature or serenity | school or anxiety,502.27,f,136,,relax,nature or serenity,nature or serenity or school or anxiety,nature or serenity,school or anxiety,1,
iat,nature or serenity | school or anxiety,384.42,f,137,,calm,nature or serenity,nature or serenity or school or anxiety,nature or serenity,school or anxiety,1,
iat,nature or serenity | school or anxiety,590.52,j,138,,homework,school or anxiety,nature or serenity or school or anxiety,nature or serenity,school or anxiety,1,
iat,nature or serenity | school or anxiety,647.61,f,139,,breathe,nature or serenity,nature or serenity or school or anxiety,nature or serenity,school or anxiety,1,
iat,nature or serenity | school or anxiety,653.18,j,140,,fear,school or anxiety,nature or serenity or school or anxiety,nature or serenity,school or anxiety,1,
iat,nature or serenity | school or anxiety,595.78,f,141,,calm,nature or serenity,nature or serenity or school or anxiety,nature or serenity,school or anxiety,1,
iat,nature or serenity | school or anxiety,524.37,j,142,,panic,school or anxiety,nature or serenity or school or anxiety,nature or serenity,school or anxiety,1,
iat,nature or serenity | school or anxiety,570.74,j,143,,panic,school or anxiety,nature or serenity or school or anxiety,nature or serenity,school or anxiety,1,
iat,nature or serenity | school or anxiety,674.34,f,144,,quiet,nature or serenity,nature or serenity or school or anxiety,nature or serenity,school or anxiety,1,
iat,nature or serenity | school or anxiety,776.1,f,145,,forest,nature or serenity,nature or serenity or school or anxiety,nature or serenity,school or anxiety,1,
iat,nature or serenity | school or anxiety,489.55,f,146,,meadow,nature or serenity,nature or serenity or school or anxiety,nature or serenity,school or anxiety,1,
iat,nature or serenity | school or anxiety,674.69,f,147,,rest,nature or serenity,nature or serenity or school or anxiety,nature or serenity,school or anxiety,1,
iat,nature or serenity | school or anxiety,523.31,f,148,,relax,nature or serenity,nature or serenity or school or anxiety,nature or serenity,school or anxiety,1,
iat,nature or serenity | school or anxiety,553.46,f,149,,breathe,nature or serenity,nature or serenity or school or anxiety,nature or serenity,school or anxiety,1,
iat,nature or serenity | school or anxiety,528.17,f,150,,lake,nature or serenity,nature or serenity or school or anxiety,nature or serenity,school or anxiety,1,
iat,nature or serenity | school or anxiety,701.34,j,151,,unease,school or anxiety,nature or serenity or school or anxiety,nature or serenity,school or anxiety,1,
iat,nature or serenity | school or anxiety,548.89,j,152,,grade,school or anxiety,nature or serenity or school or anxiety,nature or serenity,school or anxiety,1,
iat,nature or serenity | school or anxiety,619.85,f,153,,grade,school or anxiety,nature or serenity or school or anxiety,nature or serenity,school or anxiety,0,
iat,nature or serenity | school or anxiety,473.77,f,154,,gentle,nature or serenity,nature or serenity or school or anxiety,nature or serenity,school or anxiety,1,
iat,nature or serenity | school or anxiety,509.5,j,155,,worry,school or anxiety,nature or serenity or school or anxiety,nature or serenity,school or anxiety,1,
iat,nature or serenity | school or anxiety,495.07,j,156,,worry,school or anxiety,nature or serenity or school or anxiety,nature or serenity,school or anxiety,1,
iat,nature or serenity | school or anxiety,820.06,f,157,,meadow,nature or serenity,nature or serenity or school or anxiety,nature or serenity,school or anxiety,1,
iat,nature or serenity | school or anxiety,375.57,j,158,,teacher,school or anxiety,nature or serenity or school or anxiety,nature or serenity,school or anxiety,1,
iat,nature or serenity | school or anxiety,590.41,j,159,,panic,school or anxiety,nature or serenity or school or anxiety,nature or serenity,school or anxiety,1,
iat,nature or serenity | school or anxiety,788.34,f,160,,soothe,nature or serenity,nature or serenity or school or anxiety,nature or serenity,school or anxiety,1,
iat,nature or serenity | school or anxiety,373.98,j,161,,fear,school or anxiety,nature or serenity or school or anxiety,nature or serenity,school or anxiety,1,
iat,nature or serenity | school or anxiety,801.4,f,162,,soothe,nature or serenity,nature or serenity or school or anxiety,nature or serenity,school or anxiety,1,
iat,nature or serenity | school or anxiety,643.9,j,163,,class,school or anxiety,nature or serenity or school or anxiety,nature or serenity,school or anxiety,1,
iat,nature or serenity | school or anxiety,837.14,f,164,,rest,nature or serenity,nature or serenity or school or anxiety,nature or serenity,school or anxiety,1,
iat,nature or serenity | school or anxiety,450.21,j,165,,campus,school or anxiety,nature or serenity or school or anxiety,nature or serenity,school or anxiety,1,
iat,nature or serenity | school or anxiety,545.81,f,166,,mountain,nature or serenity,nature or serenity or school or anxiety,nature or serenity,school or anxiety,1,
iat,nature or serenity | school or anxiety,772.38,f,167,,soothe,nature or serenity,nature or serenity or school or anxiety,nature or serenity,school or anxiety,1,
iat,nature or serenity | school or anxiety,509.54,j,168,,fear,school or anxiety,nature or serenity or school or anxiety,nature or serenity,school or anxiety,1,
iat,nature or serenity | school or anxiety,648.56,j,169,,grade,school or anxiety,nature or serenity or school or anxiety,nature or serenity,school or anxiety,1,
iat,nature or serenity | school or anxiety,622.56,j,170,,tension,school or anxiety,nature or serenity or school or anxiety,nature or serenity,school or anxiety,1,
iat,nature or serenity | school or anxiety,639.9,f,171,,breeze,nature or serenity,nature or serenity or school or anxiety,nature or serenity,school or anxiety,1,
iat,nature or serenity | school or anxiety,613.52,f,172,,river,nature or serenity,nature or serenity or school or anxiety,nature or serenity,school or anxiety,1,
iat,nature or serenity | school or anxiety,678.06,j,173,,unease,school or anxiety,nature or serenity or school or anxiety,nature or serenity,school or anxiety,1,
iat,nature or serenity | school or anxiety,655.94,f,174,,river,nature or serenity,nature or serenity or school or anxiety,nature or serenity,school or anxiety,1,
iat,nature or serenity | school or anxiety,578.0,f,175,,lake,nature or serenity,nature or serenity or school or anxiety,nature or serenity,school or anxiety,1,
iat,nature or serenity | school or anxiety,202.13,j,176,,worry,school or anxiety,nature or serenity or school or anxiety,nature or serenity,school or anxiety,1,
Questionnaire,,,"{""question1"": 5, ""question2"": 2, ""question3"": null, ""question4"": ""3"", ""question5"": null, ""question6"": 5, ""question7"": ""1""}",177,,,,,,,,Q1-Q7
