trialType,block,rt,response,trial_index,time_elapsed,word,expectedCategory,expectedCategoryAsDisplayed,leftCategory,rightCategory,correct,question_order
iat,nature | school,721.31,j,1,,forest,nature,nature or school,nature,school,0,
iat,nature | school,620.38,f,2,,river,nature,nature or school,nature,school,1,
iat,nature | school,634.35,j,3,,teacher,school,nature or school,nature,school,1,
iat,nature | school,414.08,j,4,,exam,school,nature or school,nature,school,1,
iat,nature | school,681.68,f,5,,meadow,nature,nature or school,nature,school,1,
iat,nature | school,740.16,j,6,,grade,school,nature or school,nature,school,1,
iat,nature | school,578.09,f,7,,mountain,nature,nature or school,nature,school,1,
iat,nature | school,530.37,f,8,,ocean,nature,nature or school,nature,school,1,
iat,nature | school,656.31,j,9,,campus,school,nature or school,nature,school,1,
iat,nature | school,773.16,f,10,,tree,nature,nature or school,nature,school,1,
iat,nature | school,456.17,f,11,,forest,nature,nature or school,nature,school,1,
iat,nature | school,600.35,f,12,,meadow,nature,nature or school,nature,school,1,
iat,nature | school,681.58,f,13,,lake,nature,nature or school,nature,school,1,
iat,nature | school,709.28,f,14,,meadow,nature,nature or school,nature,school,1,
iat,nature | school,561.1,f,15,,tree,nature,nature or school,nature,school,1,
iat,nature | school,258.44,j,16,,forest,nature,nature or school,nature,school,0,
iat,nature | school,751.33,f,17,,river,nature,nature or school,nature,school,1,
iat,nature | school,439.68,j,18,,mountain,nature,nature or school,nature,school,0,
iat,nature | school,891.32,f,19,,breeze,nature,nature or school,nature,school,1,
iat,nature | school,653.64,j,20,,campus,school,nature or school,nature,school,1,
iat,nature | school,490.36,j,21,,essay,school,nature or school,nature,school,1,
iat,nature | school,545.76,j,22,,teacher,school,nature or school,nature,school,1,
iat,nature | school,557.87,f,23,,tree,nature,nature or school,nature,school,1,
iat,nature | school,440.77,j,24,,grade,school,nature or school,nature,school,1,
iat,serenity | anxiety,589.56,j,25,,unease,anxiety,serenity or anxiety,serenity,anxiety,1,
iat,serenity | anxiety,714.22,f,26,,soothe,serenity,serenity or anxiety,serenity,anxiety,1,
iat,serenity | anxiety,495.13,f,27,,calm,serenity,serenity or anxiety,serenity,anxiety,1,
iat,serenity | anxiety,511.02,j,28,,panic,anxiety,serenity or anxiety,serenity,anxiety,1,
iat,serenity | anxiety,531.19,f,29,,rest,serenity,serenity or anxiety,serenity,anxiety,1,
iat,serenity | anxiety,383.93,j,30,,nervous,anxiety,serenity or anxiety,serenity,anxiety,1,
iat,serenity | anxiety,590.03,j,31,,stress,anxiety,serenity or anxiety,serenity,anxiety,1,
iat,serenity | anxiety,656.16,f,32,,calm,serenity,serenity or anxiety,serenity,anxiety,1,
iat,serenity | anxiety,757.96,f,33,,gentle,serenity,serenity or anxiety,serenity,anxiety,1,
iat,serenity | anxiety,612.33,f,34,,gentle,serenity,serenity or anxiety,serenity,anxiety,1,
iat,serenity | anxiety,524.46,f,35,,rest,serenity,serenity or anxiety,serenity,anxiety,1,
iat,serenity | anxiety,645.93,j,36,,worry,anxiety,serenity or anxiety,serenity,anxiety,1,
iat,serenity | anxiety,598.68,f,37,,gentle,serenity,serenity or anxiety,serenity,anxiety,1,
iat,serenity | anxiety,573.73,j,38,,unease,anxiety,serenity or anxiety,serenity,anxiety,1,
iat,serenity | anxiety,868.34,f,39,,calm,serenity,serenity or anxiety,serenity,anxiety,1,
iat,serenity | anxiety,521.87,j,40,,nervous,anxiety,serenity or anxiety,serenity,anxiety,1,
iat,serenity | anxiety,610.94,f,41,,quiet,serenity,serenity or anxiety,serenity,anxiety,1,
iat,serenity | anxiety,449.11,j,42,,stress,anxiety,serenity or anxiety,serenity,anxiety,1,
iat,serenity | anxiety,661.22,j,43,,unease,anxiety,serenity or anxiety,serenity,anxiety,1,
iat,serenity | anxiety,752.31,j,44,,alarm,anxiety,serenity or anxiety,serenity,anxiety,1,
iat,serenity | anxiety,521.43,j,45,,worry,anxiety,serenity or anxiety,serenity,anxiety,1,
iat,serenity | anxiety,776.99,f,46,,quiet,serenity,serenity or anxiety,serenity,anxiety,1,
iat,serenity | anxiety,739.13,f,47,,soothe,serenity,serenity or anxiety,serenity,anxiety,1,
iat,serenity | anxiety,570.52,f,48,,breathe,serenity,serenity or anxiety,serenity,anxiety,1,
iat,nature or serenity | school or anxiety,574.54,j,49,,alarm,school or anxiety,nature or serenity or school or anxiety,nature or serenity,school or anxiety,1,
iat,nature or serenity | school or anxiety,553.25,j,50,,class,school or anxiety,nature or serenity or school or anxiety,nature or serenity,school or anxiety,1,
iat,nature or serenity | school or anxiety,569.58,f,51,,meadow,nature or serenity,nature or serenity or school or anxiety,nature or serenity,school or anxiety,1,
iat,nature or serenity | school or anxiety,630.23,f,52,,gentle,nature or serenity,nature or serenity or school or anxiety,nature or serenity,school or anxiety,1,
iat,nature or serenity | school or anxiety,391.7,j,53,,essay,school or anxiety,nature or serenity or school or anxiety,nature or serenity,school or anxiety,1,
iat,nature or serenity | school or anxiety,429.55,f,54,,river,nature or serenity,nature or serenity or school or anxiety,nature or serenity,school or anxiety,1,
iat,nature or serenity | school or anxiety,478.3,f,55,,gentle,nature or serenity,nature or serenity or school or anxiety,nature or serenity,school or anxiety,1,
iat,nature or serenity | school or anxiety,716.56,j,56,,teacher,school or anxiety,nature or serenity or school or anxiety,nature or serenity,school or anxiety,1,
iat,nature or serenity | school or anxiety,524.9,j,57,,unease,school or anxiety,nature or serenity or school or anxiety,nature or serenity,school or anxiety,1,
iat,nature or serenity | school or anxiety,381.41,j,58,,stress,school or anxiety,nature or serenity or school or anxiety,nature or serenity,school or anxiety,1,
iat,nature or serenity | school or anxiety,540.83,f,59,,mountain,nature or serenity,nature or serenity or school or anxiety,nature or serenity,school or anxiety,1,
iat,nature or serenity | school or anxiety,658.2,j,60,,alarm,school or anxiety,nature or serenity or school or anxiety,nature or serenity,school or anxiety,1,
iat,nature or serenity | school or anxiety,698.19,j,61,,tension,school or anxiety,nature or serenity or school or anxiety,nature or serenity,school or anxiety,1,
iat,nature or serenity | school or anxiety,392.39,f,62,,rest,nature or serenity,nature or serenity or school or anxiety,nature or serenity,school or anxiety,1,
iat,nature or serenity | school or anxiety,617.85,f,63,,gentle,nature or serenity,nature or serenity or school or anxiety,nature or serenity,school or anxiety,1,
iat,nature or serenity | school or anxiety,345.16,j,64,,panic,school or anxiety,nature or serenity or school or anxiety,nature or serenity,school or anxiety,1,
iat,nature or serenity | school or anxiety,740.43,f,65,,breeze,nature or serenity,nature or serenity or school or anxiety,nature or serenity,school or anxiety,1,
iat,nature or serenity | school or anxiety,523.52,j,66,,panic,school or anxiety,nature or serenity or school or anxiety,nature or serenity,school or anxiety,1,
iat,nature or serenity | school or anxiety,482.55,j,67,,campus,school or anxiety,nature or serenity or school or anxiety,nature or serenity,school or anxiety,1,
iat,nature or serenity | school or anxiety,640.51,f,68,,ocean,nature or serenity,nature or serenity or school or anxiety,nature or serenity,school or anxiety,1,
iat,nature or serenity | school or anxiety,666.93,f,69,,quiet,nature or serenity,nature or serenity or school or anxiety,nature or serenity,school or anxiety,1,
iat,nature or serenity | school or anxiety,546.07,f,70,,quiet,nature or serenity,nature or serenity or school or anxiety,nature or serenity,school or anxiety,1,
iat,nature or serenity | school or anxiety,492.16,f,71,,mountain,nature or serenity,nature or serenity or school or anxiety,nature or serenity,school or anxiety,1,
iat,nature or serenity | school or anxiety,750.45,f,72,,rest,nature or serenity,nature or serenity or school or anxiety,nature or serenity,school or anxiety,1,
iat,nature or serenity | school or anxiety,624.68,f,73,,quiet,nature or serenity,nature or serenity or school or anxiety,nature or serenity,school or anxiety,1,
iat,nature or serenity | school or anxiety,561.54,f,74,,soothe,nature or serenity,nature or serenity or school or anxiety,nature or serenity,school or anxiety,1,
iat,nature or serenity | school or anxiety,580.48,j,75,,homework,school or anxiety,nature or serenity or school or anxiety,nature or serenity,school or anxiety,1,
iat,nature or serenity | school or anxiety,397.69,j,76,,stress,school or anxiety,nature or serenity or school or anxiety,nature or serenity,school or anxiety,1,
iat,nature or serenity | school or anxiety,541.49,j,77,,lecture,school or anxiety,nature or serenity or school or anxiety,nature or serenity,school or anxiety,1,
iat,nature or serenity | school or anxiety,700.24,f,78,,soothe,nature or serenity,nature or serenity or school or anxiety,nature or serenity,school or anxiety,1,
iat,nature or serenity | school or anxiety,569.27,f,79,,ocean,nature or serenity,nature or serenity or school or anxiety,nature or serenity,school or anxiety,1,
iat,nature or serenity | school or anxiety,689.13,f,80,,forest,nature or serenity,nature or serenity or school or anxiety,nature or serenity,school or anxiety,1,
iat,nature or serenity | school or anxiety,607.84,j,81,,teacher,school or anxiety,nature or serenity or school or anxiety,nature or serenity,school or anxiety,1,
iat,nature or serenity | school or anxiety,569.88,j,82,,homework,school or anxiety,nature or serenity or school or anxiety,nature or serenity,school or anxiety,1,
iat,nature or serenity | school or anxiety,385.33,j,83,,fear,school or anxiety,nature or serenity or school or anxiety,nature or serenity,school or anxiety,1,
iat,nature or serenity | school or anxiety,629.3,f,84,,tree,nature or serenity,nature or serenity or school or anxiety,nature or serenity,school or anxiety,1,
iat,nature or serenity | school or anxiety,494.49,f,85,,forest,nature or serenity,nature or serenity or school or anxiety,nature or serenity,school or anxiety,1,
iat,nature or serenity | school or anxiety,668.07,j,86,,class,school or anxiety,nature or serenity or school or anxiety,nature or serenity,school or anxiety,1,
iat,nature or serenity | school or anxiety,544.63,j,87,,worry,school or anxiety,nature or serenity or school or anxiety,nature or serenity,school or anxiety,1,
iat,nature or serenity | school or anxiety,772.82,j,88,,stress,school or anxiety,nature or serenity or school or anxiety,nature or serenity,school or anxiety,1,
iat,nature or serenity | school or anxiety,517.89,j,89,,campus,school or anxiety,nature or serenity or school or anxiety,nature or serenity,school or anxiety,1,
iat,nature or serenity | school or anxiety,684.74,j,90,,teacher,school or anxiety,nature or serenity or school or anxiety,nature or serenity,school or anxiety,1,
iat,nature or serenity | school or anxiety,884.26,j,91,,tension,school or anxiety,nature or serenity or school or anxiety,nature or serenity,school or anxiety,1,
iat,nature or serenity | school or anxiety,678.79,j,92,,unease,school or anxiety,nature or serenity or school or anxiety,nature or serenity,school or anxiety,1,
iat,nature or serenity | school or anxiety,720.62,j,93,,panic,school or anxiety,nature or serenity or school or anxiety,nature or serenity,school or anxiety,1,
iat,nature or serenity | school or anxiety,465.94,f,94,,peace,nature or serenity,nature or serenity or school or anxiety,nature or serenity,school or anxiety,1,
iat,nature or serenity | school or anxiety,601.51,f,95,,soothe,nature or serenity,nature or serenity or school or anxiety,nature or serenity,school or anxiety,1,
iat,nature or serenity | school or anxiety,732.45,f,96,,tree,nature or serenity,nature or serenity or school or anxiety,nature or serenity,school or anxiety,1,
iat,nature or serenity | school or anxiety,648.92,j,97,,fear,school or anxiety,nature or serenity or school or anxiety,nature or serenity,school or anxiety,1,
iat,nature or serenity | school or anxiety,513.62,f,98,,tree,nature or serenity,nature or serenity or school or anxiety,nature or serenity,school or anxiety,1,
iat,nature or serenity | school or anxiety,560.5,j,99,,essay,school or anxiety,nature or serenity or school or anxiety,nature or serenity,school or anxiety,1,
iat,nature or serenity | school or anxiety,526.54,f,100,,gentle,nature or serenity,nature or serenity or school or anxiety,nature or serenity,school or anxiety,1,
iat,nature or serenity | school or anxiety,928.33,f,101,,lake,nature or serenity,nature or serenity or school or anxiety,nature or serenity,school or anxiety,1,
iat,nature or serenity | school or anxiety,505.87,j,102,,forest,nature or serenity,nature or serenity or school or anxiety,nature or serenity,school or anxiety,0,
iat,nature or serenity | school or anxiety,642.49,j,103,,stress,school or anxiety,nature or serenity or school or anxiety,nature or serenity,school or anxiety,1,
iat,nature or serenity | school or anxiety,412.5,j,104,,soothe,nature or serenity,nature or serenity or school or anxiety,nature or serenity,school or anxiety,0,
iat,nature or serenity | school or anxiety,623.96,f,105,,ocean,nature or serenity,nature or serenity or school or anxiety,nature or serenity,school or anxiety,1,
iat,nature or serenity | school or anxiety,675.09,f,106,,rest,nature or serenity,nature or serenity or school or anxiety,nature or serenity,school or anxiety,1,
iat,nature or serenity | school or anxiety,693.55,f,107,,teacher,school or anxiety,nature or serenity or school or anxiety,nature or serenity,school or anxiety,0,
iat,nature or serenity | school or anxiety,632.84,j,108,,essay,school or anxiety,nature or serenity or school or anxiety,nature or serenity,school or anxiety,1,
iat,nature or serenity | school or anxiety,409.54,j,109,,exam,school or anxiety,nature or serenity or school or anxiety,nature or serenity,school or anxiety,1,
iat,nature or serenity | school or anxiety,476.55,f,110,,relax,nature or serenity,nature or serenity or school or anxiety,nature or serenity,school or anxiety,1,
iat,nature or serenity | school or anxiety,550.69,j,111,,teacher,school or anxiety,nature or serenity or school or anxiety,nature or serenity,school or anxiety,1,
iat,nature or serenity | school or anxiety,737.35,f,112,,relax,nature or serenity,nature or serenity or school or anxiety,nature or serenity,school or anxiety,1,
iat,nature or anxiety | school or serenity,687.99,j,113,,rest,school or serenity,nature or anxiety or school or serenity,nature or anxiety,school or serenity,1,
iat,nature or anxiety | school or serenity,633.32,f,114,,mountain,nature or anxiety,nature or anxiety or school or serenity,nature or anxiety,school or serenity,1,
iat,nature or anxiety | school or serenity,696.68,j,115,,teacher,school or serenity,nature or anxiety or school or serenity,nature or anxiety,school or serenity,1,
iat,nature or anxiety | school or serenity,673.12,j,116,,lecture,school or serenity,nature or anxiety or school or serenity,nature or anxiety,school or serenity,1,
iat,nature or anxiety | school or serenity,704.23,j,117,,lecture,school or serenity,nature or anxiety or school or serenity,nature or anxiety,school or serenity,1,
iat,nature or anxiety | school or serenity,557.79,j,118,,calm,school or serenity,nature or anxiety or school or serenity,nature or anxiety,school or serenity,1,
iat,nature or anxiety | school or serenity,453.92,j,119,,river,nature or anxiety,nature or anxiety or school or serenity,nature or anxiety,school or serenity,0,
iat,nature or anxiety | school or serenity,313.15,f,120,,meadow,nature or anxiety,nature or anxiety or school or serenity,nature or anxiety,school or serenity,1,
iat,nature or anxiety | school or serenity,758.07,f,121,,lake,nature or anxiety,nature or anxiety or school or serenity,nature or anxiety,school or serenity,1,
iat,nature or anxiety | school or serenity,685.8,j,122,,campus,school or serenity,nature or anxiety or school or serenity,nature or anxiety,school or serenity,1,
iat,nature or anxiety | school or serenity,635.84,f,123,,tree,nature or anxiety,nature or anxiety or school or serenity,nature or anxiety,school or serenity,1,
iat,nature or anxiety | school or serenity,515.52,j,124,,homework,school or serenity,nature or anxiety or school or serenity,nature or anxiety,school or serenity,1,
iat,nature or anxiety | school or serenity,712.49,f,125,,meadow,nature or anxiety,nature or anxiety or school or serenity,nature or anxiety,school or serenity,1,
iat,nature or anxiety | school or serenity,543.67,f,126,,tension,nature or anxiety,nature or anxiety or school or serenity,nature or anxiety,school or serenity,1,
iat,nature or anxiety | school or serenity,618.51,f,127,,mountain,nature or anxiety,nature or anxiety or school or serenity,nature or anxiety,school or serenity,1,
iat,nature or anxiety | school or serenity,588.93,j,128,,gentle,school or serenity,nature or anxiety or school or serenity,nature or anxiety,school or serenity,1,
iat,nature or anxiety | school or serenity,617.31,j,129,,mountain,nature or anxiety,nature or anxiety or school or serenity,nature or anxiety,school or serenity,0,
iat,nature or anxiety | school or serenity,601.34,j,130,,panic,nature or anxiety,nature or anxiety or school or serenity,nature or anxiety,school or serenity,0,
iat,nature or anxiety | school or serenity,533.48,j,131,,lecture,school or serenity,nature or anxiety or school or serenity,nature or anxiety,school or serenity,1,
iat,nature or anxiety | school or serenity,549.84,j,132,,homework,school or serenity,nature or anxiety or school or serenity,nature or anxiety,school or serenity,1,
iat,nature or anxiety | school or serenity,435.73,f,133,,grade,school or serenity,nature or anxiety or school or serenity,nature or anxiety,school or serenity,0,
iat,nature or anxiety | school or serenity,627.14,j,134,,relax,school or serenity,nature or anxiety or school or serenity,nature or anxiety,school or serenity,1,
iat,nature or anxiety | school or serenity,439.39,j,135,,exam,school or serenity,nature or anxiety or school or serenity,nature or anxiety,school or serenity,1,
iat,nature or anxiety | school or serenity,478.66,f,136,,fear,nature or anxiety,nature or anxiety or school or serenity,nature or anxiety,school or serenity,1,
iat,nature or anxiety | school or serenity,823.16,f,137,,nervous,nature or anxiety,nature or anxiety or school or serenity,nature or anxiety,school or serenity,1,
iat,nature or anxiety | school or serenity,661.9,f,138,,tension,nature or anxiety,nature or anxiety or school or serenity,nature or anxiety,school or serenity,1,
iat,nature or anxiety | school or serenity,882.61,j,139,,gentle,school or serenity,nature or anxiety or school or serenity,nature or anxiety,school or serenity,1,
iat,nature or anxiety | school or serenity,883.68,j,140,,relax,school or serenity,nature or anxiety or school or serenity,nature or anxiety,school or serenity,1,
iat,nature or anxiety | school or serenity,710.04,f,141,,unease,nature or anxiety,nature or anxiety or school or serenity,nature or anxiety,school or serenity,1,
iat,nature or anxiety | school or serenity,560.14,f,142,,river,nature or anxiety,nature or anxiety or school or serenity,nature or anxiety,school or serenity,1,
iat,nature or anxiety | school or serenity,675.14,f,143,,stress,nature or anxiety,nature or anxiety or school or serenity,nature or anxiety,school or serenity,1,
iat,nature or anxiety | school or serenity,702.54,j,144,,exam,school or serenity,nature or anxiety or school or serenity,nature or anxiety,school or serenity,1,
iat,nature or anxiety | school or serenity,889.58,j,145,,relax,school or serenity,nature or anxiety or school or serenity,nature or anxiety,school or serenity,1,
iat,nature or anxiety | school or serenity,726.7,j,146,,breathe,school or serenity,nature or anxiety or school or serenity,nature or anxiety,school or serenity,1,
iat,nature or anxiety | school or serenity,686.93,f,147,,lake,nature or anxiety,nature or anxiety or school or serenity,nature or anxiety,school or serenity,1,
iat,nature or anxiety | school or serenity,589.08,j,148,,grade,school or serenity,nature or anxiety or school or serenity,nature or anxiety,school or serenity,1,
iat,nature or anxiety | school or serenity,652.93,j,149,,lecture,school or serenity,nature or anxiety or school or serenity,nature or anxiety,school or serenity,1,
iat,nature or anxiety | school or serenity,610.36,f,150,,mountain,nature or anxiety,nature or anxiety or school or serenity,nature or anxiety,school or serenity,1,
iat,nature or anxiety | school or serenity,629.76,f,151,,nervous,nature or anxiety,nature or anxiety or school or serenity,nature or anxiety,school or serenity,1,
iat,nature or anxiety | school or serenity,644.83,j,152,,rest,school or serenity,nature or anxiety or school or serenity,nature or anxiety,school or serenity,1,
iat,nature or anxiety | school or serenity,537.18,f,153,,panic,nature or anxiety,nature or anxiety or school or serenity,nature or anxiety,school or serenity,1,
iat,nature or anxiety | school or serenity,690.18,j,154,,essay,school or serenity,nature or anxiety or school or serenity,nature or anxiety,school or serenity,1,
iat,nature or anxiety | school or serenity,521.29,f,155,,campus,school or serenity,nature or anxiety or school or serenity,nature or anxiety,school or serenity,0,
iat,nature or anxiety | school or serenity,718.52,j,156,,essay,school or serenity,nature or anxiety or school or serenity,nature or anxiety,school or serenity,1,
iat,nature or anxiety | school or serenity,471.54,j,157,,class,school or serenity,nature or anxiety or school or serenity,nature or anxiety,school or serenity,1,
iat,nature or anxiety | school or serenity,444.77,j,158,,essay,school or serenity,nature or anxiety or school or serenity,nature or anxiety,school or serenity,1,
iat,nature or anxiety | school or serenity,773.55,f,159,,mountain,nature or anxiety,nature or anxiety or school or serenity,nature or anxiety,school or serenity,1,
iat,nature or anxiety | school or serenity,779.2,j,160,,breeze,nature or anxiety,nature or anxiety or school or serenity,nature or anxiety,school or serenity,0,
iat,nature or anxiety | school or serenity,896.19,f,161,,fear,nature or anxiety,nature or anxiety or school or serenity,nature or anxiety,school or serenity,1,
iat,nature or anxiety | school or serenity,715.93,f,162,,class,school or serenity,nature or anxiety or school or serenity,nature or anxiety,school or serenity,0,
iat,nature or anxiety | school or serenity,824.97,j,163,,homework,school or serenity,nature or anxiety or school or serenity,nature or anxiety,school or serenity,1,
iat,nature or anxiety | school or serenity,762.47,f,164,,nervous,nature or anxiety,nature or anxiety or school or serenity,nature or anxiety,school or serenity,1,
iat,nature or anxiety | school or serenity,704.25,j,165,,grade,school or serenity,nature or anxiety or school or serenity,nature or anxiety,school or serenity,1,
iat,nature or anxiety | school or serenity,780.7,f,166,,unease,nature or anxiety,nature or anxiety or school or serenity,nature or anxiety,school or serenity,1,
iat,nature or anxiety | school or serenity,843.2,j,167,,rest,school or serenity,nature or anxiety or school or serenity,nature or anxiety,school or serenity,1,
iat,nature or anxiety | school or serenity,685.55,j,168,,lecture,school or serenity,nature or anxiety or school or serenity,nature or anxiety,school or serenity,1,
iat,nature or anxiety | school or serenity,720.55,f,169,,alarm,nature or anxiety,nature or anxiety or school or serenity,nature or anxiety,school or serenity,1,
iat,nature or anxiety | school or serenity,788.26,f,170,,class,school or serenity,nature or anxiety or school or serenity,nature or anxiety,school or serenity,0,
iat,nature or anxiety | school or serenity,758.36,j,171,,breathe,school or serenity,nature or anxiety or school or serenity,nature or anxiety,school or serenity,1,
iat,nature or anxiety | school or serenity,705.53,j,172,,campus,school or serenity,nature or anxiety or school or serenity,nature or anxiety,school or serenity,1,
iat,nature or anxiety | school or serenity,669.7,j,173,,soothe,school or serenity,nature or anxiety or school or serenity,nature or anxiety,school or serenity,1,
iat,nature or anxiety | school or serenity,828.2,j,174,,campus,school or serenity,nature or anxiety or school or serenity,nature or anxiety,school or serenity,1,
iat,nature or anxiety | school or serenity,682.74,j,175,,breathe,school or serenity,nature or anxiety or school or serenity,nature or anxiety,school or serenity,1,
iat,nature or anxiety | school or serenity,751.96,f,176,,breathe,school or serenity,nature or anxiety or school or serenity,nature or anxiety,school or serenity,0,
Questionnaire,,,"{""question1"": 3, ""question2"": 2, ""question3"": ""1"", ""question4"": ""4"", ""question5"": null, ""question6"": null, ""question7"": 2}",177,,,,,,,,Q1-Q7
