trialType,block,rt,response,trial_index,time_elapsed,word,expectedCategory,expectedCategoryAsDisplayed,leftCategory,rightCategory,correct,question_order
iat,serenity | anxiety,540.42,f,1,,quiet,serenity,serenity or anxiety,serenity,anxiety,1,
iat,serenity | anxiety,665.89,f,2,,breathe,serenity,serenity or anxiety,serenity,anxiety,1,
iat,serenity | anxiety,563.32,j,3,,worry,anxiety,serenity or anxiety,serenity,anxiety,1,
iat,serenity | anxiety,887.98,j,4,,stress,anxiety,serenity or anxiety,serenity,anxiety,1,
iat,serenity | anxiety,358.39,f,5,,breathe,serenity,serenity or anxiety,serenity,anxiety,1,
iat,serenity | anxiety,518.48,j,6,,stress,anxiety,serenity or anxiety,serenity,anxiety,1,
iat,serenity | anxiety,825.57,j,7,,panic,anxiety,serenity or anxiety,serenity,anxiety,1,
iat,serenity | anxiety,465.8,f,8,,relax,serenity,serenity or anxiety,serenity,anxiety,1,
iat,serenity | anxiety,643.47,j,9,,fear,anxiety,serenity or anxiety,serenity,anxiety,1,
iat,serenity | anxiety,636.59,j,10,,tension,anxiety,serenity or anxiety,serenity,anxiety,1,
iat,serenity | anxiety,542.95,j,11,,panic,anxiety,serenity or anxiety,serenity,anxiety,1,
iat,serenity | anxiety,861.41,f,12,,relax,serenity,serenity or anxiety,serenity,anxiety,1,
iat,serenity | anxiety,483.99,j,13,,unease,anxiety,serenity or anxiety,serenity,anxiety,1,
iat,serenity | anxiety,708.3,j,14,,fear,anxiety,serenity or anxiety,serenity,anxiety,1,
iat,serenity | anxiety,752.4,f,15,,rest,serenity,serenity or anxiety,serenity,anxiety,1,
iat,serenity | anxiety,585.1,j,16,,tension,anxiety,serenity or anxiety,serenity,anxiety,1,
iat,serenity | anxiety,468.46,j,17,,fear,anxiety,serenity or anxiety,serenity,anxiety,1,
iat,serenity | anxiety,755.69,f,18,,peace,serenity,serenity or anxiety,serenity,anxiety,1,
iat,serenity | anxiety,655.62,f,19,,breathe,serenity,serenity or anxiety,serenity,anxiety,1,
iat,serenity | anxiety,701.36,f,20,,quiet,serenity,serenity or anxiety,serenity,anxiety,1,
iat,serenity | anxiety,490.79,j,21,,alarm,anxiety,serenity or anxiety,serenity,anxiety,1,
iat,serenity | anxiety,571.37,j,22,,nervous,anxiety,serenity or anxiety,serenity,anxiety,1,
iat,serenity | anxiety,694.45,f,23,,worry,anxiety,serenity or anxiety,serenity,anxiety,0,
iat,serenity | anxiety,778.29,f,24,,rest,serenity,serenity or anxiety,serenity,anxiety,1,
iat,nature | school,522.76,j,25,,class,school,nature or school,nature,school,1,
iat,nature | school,833.5,j,26,,class,school,nature or school,nature,school,1,
iat,nature | school,577.62,f,27,,ocean,nature,nature or school,nature,school,1,
iat,nature | school,763.12,f,28,,breeze,nature,nature or school,nature,school,1,
iat,nature | school,694.07,f,29,,meadow,nature,nature or school,nature,school,1,
iat,nature | school,806.03,f,30,,breeze,nature,nature or school,nature,school,1,
iat,nature | school,416.3,f,31,,tree,nature,nature or school,nature,school,1,
iat,nature | school,581.85,f,32,,river,nature,nature or school,nature,school,1,
iat,nature | school,615.69,j,33,,ocean,nature,nature or school,nature,school,0,
iat,nature | school,623.53,f,34,,homework,school,nature or school,nature,school,0,
iat,nature | school,551.31,f,35,,mountain,nature,nature or school,nature,school,1,
iat,nature | school,631.53,f,36,,river,nature,nature or school,nature,school,1,
iat,nature | school,494.45,j,37,,teacher,school,nature or school,nature,school,1,
iat,nature | school,315.76,j,38,,homework,school,nature or school,nature,school,1,
iat,nature | school,526.1,f,39,,breeze,nature,nature or school,nature,school,1,
iat,nature | school,274.28,f,40,,ocean,nature,nature or school,nature,school,1,
iat,nature | school,658.84,j,41,,homework,school,nature or school,nature,school,1,
iat,nature | school,608.01,j,42,,essay,school,nature or school,nature,school,1,
iat,nature | school,552.19,j,43,,essay,school,nature or school,nature,school,1,
iat,nature | school,632.41,f,44,,lake,nature,nature or school,nature,school,1,
iat,nature | school,631.08,j,45,,class,school,nature or school,nature,school,1,
iat,nature | school,536.03,j,46,,teacher,school,nature or school,nature,school,1,
iat,nature | school,379.07,f,47,,breeze,nature,nature or school,nature,school,1,
iat,nature | school,663.2,f,48,,mountain,nature,nature or school,nature,school,1,
iat,nature or serenity | school or anxiety,626.11,f,49,,rest,nature or serenity,nature or serenity or school or anxiety,nature or serenity,school or anxiety,1,
iat,nature or serenity | school or anxiety,631.52,f,50,,lake,nature or serenity,nature or serenity or school or anxiety,nature or serenity,school or anxiety,1,
iat,nature or serenity | school or anxiety,604.86,f,51,,mountain,nature or serenity,nature or serenity or school or anxiety,nature or serenity,school or anxiety,1,
iat,nature or serenity | school or anxiety,729.84,j,52,,panic,school or anxiety,nature or serenity or school or anxiety,nature or serenity,school or anxiety,1,
iat,nature or serenity | school or anxiety,407.5,f,53,,rest,nature or serenity,nature or serenity or school or anxiety,nature or serenity,school or anxiety,1,
iat,nature or serenity | school or anxiety,453.07,f,54,,breathe,nature or serenity,nature or serenity or school or anxiety,nature or serenity,school or anxiety,1,
iat,nature or serenity | school or anxiety,599.44,j,55,,stress,school or anxiety,nature or serenity or school or anxiety,nature or serenity,school or anxiety,1,
iat,nature or serenity | school or anxiety,547.85,f,56,,river,nature or serenity,nature or serenity or school or anxiety,nature or serenity,school or anxiety,1,
iat,nature or serenity | school or anxiety,701.45,f,57,,exam,school or anxiety,nature or serenity or school or anxiety,nature or serenity,school or anxiety,0,
iat,nature or serenity | school or anxiety,355.69,f,58,,forest,nature or serenity,nature or serenity or school or anxiety,nature or serenity,school or anxiety,1,
iat,nature or serenity | school or anxiety,774.21,f,59,,lake,nature or serenity,nature or serenity or school or anxiety,nature or serenity,school or anxiety,1,
iat,nature or serenity | school or anxiety,588.35,f,60,,ocean,nature or serenity,nature or serenity or school or anxiety,nature or serenity,school or anxiety,1,
iat,nature or serenity | school or anxiety,602.78,j,61,,worry,school or anxiety,nature or serenity or school or anxiety,nature or serenity,school or anxiety,1,
iat,nature or serenity | school or anxiety,372.86,f,62,,relax,nature or serenity,nature or serenity or school or anxiety,nature or serenity,school or anxiety,1,
iat,nature or serenity | school or anxiety,477.49,j,63,,unease,school or anxiety,nature or serenity or school or anxiety,nature or serenity,school or anxiety,1,
iat,nature or serenity | school or anxiety,636.33,f,64,,tree,nature or serenity,nature or serenity or school or anxiety,nature or serenity,school or anxiety,1,
iat,nature or serenity | school or anxiety,867.48,j,65,,lecture,school or anxiety,nature or serenity or school or anxiety,nature or serenity,school or anxiety,1,
iat,nature or serenity | school or anxiety,476.84,j,66,,panic,school or anxiety,nature or serenity or school or anxiety,nature or serenity,school or anxiety,1,
iat,nature or serenity | school or anxiety,569.17,f,67,,river,nature or serenity,nature or serenity or school or anxiety,nature or serenity,school or anxiety,1,
iat,nature or serenity | school or anxiety,525.73,j,68,,unease,school or anxiety,nature or serenity or school or anxiety,nature or serenity,school or anxiety,1,
iat,nature or serenity | school or anxiety,570.71,f,69,,ocean,nature or serenity,nature or serenity or school or anxiety,nature or serenity,school or anxiety,1,
iat,nature or serenity | school or anxiety,524.44,j,70,,stress,school or anxiety,nature or serenity or school or anxiety,nature or serenity,school or anxiety,1,
iat,nature or serenity | school or anxiety,496.52,j,71,,unease,school or anxiety,nature or serenity or school or anxiety,nature or serenity,school or anxiety,1,
iat,nature or serenity | school or anxiety,391.03,j,72,,grade,school or anxiety,nature or serenity or school or anxiety,nature or serenity,school or anxiety,1,
iat,nature or serenity | school or anxiety,548.03,f,73,,lake,nature or serenity,nature or serenity or school or anxiety,nature or serenity,school or anxiety,1,
iat,nature or serenity | school or anxiety,485.41,j,74,,tree,nature or serenity,nature or serenity or school or anxiety,nature or serenity,school or anxiety,0,
iat,nature or serenity | school or anxiety,571.0,j,75,,exam,school or anxiety,nature or serenity or school or anxiety,nature or serenity,school or anxiety,1,
iat,nature or serenity | school or anxiety,654.58,f,76,,lake,nature or serenity,nature or serenity or school or anxiety,nature or serenity,school or anxiety,1,
iat,nature or serenity | school or anxiety,605.3,f,77,,soothe,nature or serenity,nature or serenity or school or anxiety,nature or serenity,school or anxiety,1,
iat,nature or serenity | school or anxiety,665.48,j,78,,teacher,school or anxiety,nature or serenity or school or anxiety,nature or serenity,school or anxiety,1,
iat,nature or serenity | school or anxiety,623.04,j,79,,campus,school or anxiety,nature or serenity or school or anxiety,nature or serenity,school or anxiety,1,
iat,nature or serenity | school or anxiety,716.62,f,80,,peace,nature or serenity,nature or serenity or school or anxiety,nature or serenity,school or anxiety,1,
iat,nature or serenity | school or anxiety,690.35,f,81,,rest,nature or serenity,nature or serenity or school or anxiety,nature or serenity,school or anxiety,1,
iat,nature or serenity | school or anxiety,463.25,j,82,,campus,school or anxiety,nature or serenity or school or anxiety,nature or serenity,school or anxiety,1,
iat,nature or serenity | school or anxiety,613.89,f,83,,relax,nature or serenity,nature or serenity or school or anxiety,nature or serenity,school or anxiety,1,
iat,nature or serenity | school or anxiety,816.84,j,84,,campus,school or anxiety,nature or serenity or school or anxiety,nature or serenity,school or anxiety,1,
iat,nature or serenity | school or anxiety,642.03,j,85,,campus,school or anxiety,nature or serenity or school or anxiety,nature or serenity,school or anxiety,1,
iat,nature or serenity | school or anxiety,329.65,j,86,,exam,school or anxiety,nature or serenity or school or anxiety,nature or serenity,school or anxiety,1,
iat,nature or serenity | school or anxiety,513.9,j,87,,fear,school or anxiety,nature or serenity or school or anxiety,nature or serenity,school or anxiety,1,
iat,nature or serenity | school or anxiety,538.47,j,88,,campus,school or anxiety,nature or serenity or school or anxiety,nature or serenity,school or anxiety,1,
iat,nature or serenity | school or anxiety,689.88,j,89,,homework,school or anxiety,nature or serenity or school or anxiety,nature or serenity,school or anxiety,1,
iat,nature or serenity | school or anxiety,771.62,f,90,,breeze,nature or serenity,nature or serenity or school or anxiety,nature or serenity,school or anxiety,1,
iat,nature or serenity | school or anxiety,521.41,j,91,,panic,school or anxiety,nature or serenity or school or anxiety,nature or serenity,school or anxiety,1,
iat,nature or serenity | school or anxiety,673.85,j,92,,nervous,school or anxiety,nature or serenity or school or anxiety,nature or serenity,school or anxiety,1,
iat,nature or serenity | school or anxiety,516.59,f,93,,forest,nature or serenity,nature or serenity or school or anxiety,nature or serenity,school or anxiety,1,
iat,nature or serenity | school or anxiety,483.8,f,94,,gentle,nature or serenity,nature or serenity or school or anxiety,nature or serenity,school or anxiety,1,
iat,nature or serenity | school or anxiety,562.24,f,95,,river,nature or serenity,nature or serenity or school or anxiety,nature or serenity,school or anxiety,1,
iat,nature or serenity | school or anxiety,595.87,f,96,,peace,nature or serenity,nature or serenity or school or anxiety,nature or serenity,school or anxiety,1,
iat,nature or serenity | school or anxiety,665.48,j,97,,teacher,school or anxiety,nature or serenity or school or anxiety,nature or serenity,school or anxiety,1,
iat,nature or serenity | school or anxiety,566.53,j,98,,exam,school or anxiety,nature or serenity or school or anxiety,nature or serenity,school or anxiety,1,
iat,nature or serenity | school or anxiety,434.06,j,99,,panic,school or anxiety,nature or serenity or school or anxiety,nature or serenity,school or anxiety,1,
iat,nature or serenity | school or anxiety,511.88,j,100,,panic,school or anxiety,nature or serenity or school or anxiety,nature or serenity,school or anxiety,1,
iat,nature or serenity | school or anxiety,629.21,j,101,,unease,school or anxiety,nature or serenity or school or anxiety,nature or serenity,school or anxiety,1,
iat,nature or serenity | school or anxiety,530.54,f,102,,breeze,nature or serenity,nature or serenity or school or anxiety,nature or serenity,school or anxiety,1,
iat,nature or serenity | school or anxiety,461.99,j,103,,grade,school or anxiety,nature or serenity or school or anxiety,nature or serenity,school or anxiety,1,
iat,nature or serenity | school or anxiety,385.18,f,104,,gentle,nature or serenity,nature or serenity or school or anxiety,nature or serenity,school or anxiety,1,
iat,nature or serenity | school or anxiety,431.85,j,105,,teacher,school or anxiety,nature or serenity or school or anxiety,nature or serenity,school or anxiety,1,
iat,nature or serenity | school or anxiety,480.16,f,106,,relax,nature or serenity,nature or serenity or school or anxiety,nature or serenity,school or anxiety,1,
iat,nature or serenity | school or anxiety,443.22,j,107,,campus,school or anxiety,nature or serenity or school or anxiety,nature or serenity,school or anxiety,1,
iat,nature or serenity | school or anxiety,816.62,f,108,,breeze,nature or serenity,nature or serenity or school or anxiety,nature or serenity,school or anxiety,1,
iat,nature or serenity | school or anxiety,506.22,j,109,,essay,school or anxiety,nature or serenity or school or anxiety,nature or serenity,school or anxiety,1,
iat,nature or serenity | school or anxiety,446.66,f,110,,tree,nature or serenity,nature or serenity or school or anxiety,nature or serenity,school or anxiety,1,
iat,nature or serenity | school or anxiety,512.34,f,111,,mountain,nature or serenity,nature or serenity or school or anxiety,nature or serenity,school or anxiety,1,
iat,nature or serenity | school or anxiety,686.45,j,112,,rest,nature or serenity,nature or serenity or school or anxiety,nature or serenity,school or anxiety,0,
iat,nature or anxiety | school or serenity,669.96,j,113,,soothe,school or serenity,nature or anxiety or school or serenity,nature or anxiety,school or serenity,1,
iat,nature or anxiety | school or serenity,899.17,f,114,,unease,nature or anxiety,nature or anxiety or school or serenity,nature or anxiety,school or serenity,1,
iat,nature or anxiety | school or serenity,804.86,f,115,,exam,school or serenity,nature or anxiety or school or serenity,nature or anxiety,school or serenity,0,
iat,nature or anxiety | school or serenity,427.09,f,116,,panic,nature or anxiety,nature or anxiety or school or serenity,nature or anxiety,school or serenity,1,
iat,nature or anxiety | school or serenity,858.6,j,117,,grade,school or serenity,nature or anxiety or school or serenity,nature or anxiety,school or serenity,1,
iat,nature or anxiety | school or serenity,743.85,j,118,,teacher,school or serenity,nature or anxiety or school or serenity,nature or anxiety,school or serenity,1,
iat,nature or anxiety | school or serenity,458.66,j,119,,quiet,school or serenity,nature or anxiety or school or serenity,nature or anxiety,school or serenity,1,
iat,nature or anxiety | school or serenity,663.47,f,120,,river,nature or anxiety,nature or anxiety or school or serenity,nature or anxiety,school or serenity,1,
iat,nature or anxiety | school or serenity,972.06,j,121,,essay,school or serenity,nature or anxiety or school or serenity,nature or anxiety,school or serenity,1,
iat,nature or anxiety | school or serenity,331.62,j,122,,campus,school or serenity,nature or anxiety or school or serenity,nature or anxiety,school or serenity,1,
iat,nature or anxiety | school or serenity,805.19,f,123,,forest,nature or anxiety,nature or anxiety or school or serenity,nature or anxiety,school or serenity,1,
iat,nature or anxiety | school or serenity,532.4,f,124,,stress,nature or anxiety,nature or anxiety or school or serenity,nature or anxiety,school or serenity,1,
iat,nature or anxiety | school or serenity,558.07,f,125,,forest,nature or anxiety,nature or anxiety or school or serenity,nature or anxiety,school or serenity,1,
iat,nature or anxiety | school or serenity,619.19,j,126,,homework,school or serenity,nature or anxiety or school or serenity,nature or anxiety,school or serenity,1,
iat,nature or anxiety | school or serenity,268.58,j,127,,calm,school or serenity,nature or anxiety or school or serenity,nature or anxiety,school or serenity,1,
iat,nature or anxiety | school or serenity,772.72,j,128,,homework,school or serenity,nature or anxiety or school or serenity,nature or anxiety,school or serenity,1,
iat,nature or anxiety | school or serenity,714.53,j,129,,class,school or serenity,nature or anxiety or school or serenity,nature or anxiety,school or serenity,1,
iat,nature or anxiety | school or serenity,725.35,j,130,,gentle,school or serenity,nature or anxiety or school or serenity,nature or anxiety,school or serenity,1,
iat,nature or anxiety | school or serenity,859.19,j,131,,panic,nature or anxiety,nature or anxiety or school or serenity,nature or anxiety,school or serenity,0,
iat,nature or anxiety | school or serenity,644.01,j,132,,quiet,school or serenity,nature or anxiety or school or serenity,nature or anxiety,school or serenity,1,
iat,nature or anxiety | school or serenity,724.93,f,133,,breeze,nature or anxiety,nature or anxiety or school or serenity,nature or anxiety,school or serenity,1,
iat,nature or anxiety | school or serenity,883.47,j,134,,relax,school or serenity,nature or anxiety or school or serenity,nature or anxiety,school or serenity,1,
iat,nature or anxiety | school or serenity,782.56,j,135,,class,school or serenity,nature or anxiety or school or serenity,nature or anxiety,school or serenity,1,
iat,nature or anxiety | school or serenity,670.92,f,136,,lake,nature or anxiety,nature or anxiety or school or serenity,nature or anxiety,school or serenity,1,
iat,nature or anxiety | school or serenity,722.25,f,137,,nervous,nature or anxiety,nature or anxiety or school or serenity,nature or anxiety,school or serenity,1,
iat,nature or anxiety | school or serenity,667.56,j,138,,gentle,school or serenity,nature or anxiety or school or serenity,nature or anxiety,school or serenity,1,
iat,nature or anxiety | school or serenity,602.06,j,139,,lecture,school or serenity,nature or anxiety or school or serenity,nature or anxiety,school or serenity,1,
iat,nature or anxiety | school or serenity,617.58,j,140,,grade,school or serenity,nature or anxiety or school or serenity,nature or anxiety,school or serenity,1,
iat,nature or anxiety | school or serenity,832.2,j,141,,relax,school or serenity,nature or anxiety or school or serenity,nature or anxiety,school or serenity,1,
iat,nature or anxiety | school or serenity,666.99,f,142,,alarm,nature or anxiety,nature or anxiety or school or serenity,nature or anxiety,school or serenity,1,
iat,nature or anxiety | school or serenity,562.39,f,143,,nervous,nature or anxiety,nature or anxiety or school or serenity,nature or anxiety,school or serenity,1,
iat,nature or anxiety | school or serenity,660.22,f,144,,river,nature or anxiety,nature or anxiety or school or serenity,nature or anxiety,school or serenity,1,
iat,nature or anxiety | school or serenity,784.77,j,145,,peace,school or serenity,nature or anxiety or school or serenity,nature or anxiety,school or serenity,1,
iat,nature or anxiety | school or serenity,483.17,f,146,,nervous,nature or anxiety,nature or anxiety or school or serenity,nature or anxiety,school or serenity,1,
iat,nature or anxiety | school or serenity,681.12,j,147,,teacher,school or serenity,nature or anxiety or school or serenity,nature or anxiety,school or serenity,1,
iat,nature or anxiety | school or serenity,645.81,j,148,,breathe,school or serenity,nature or anxiety or school or serenity,nature or anxiety,school or serenity,1,
iat,nature or anxiety | school or serenity,823.89,j,149,,meadow,nature or anxiety,nature or anxiety or school or serenity,nature or anxiety,school or serenity,0,
iat,nature or anxiety | school or serenity,733.65,f,150,,ocean,nature or anxiety,nature or anxiety or school or serenity,nature or anxiety,school or serenity,1,
iat,nature or anxiety | school or serenity,667.9,j,151,,relax,school or serenity,nature or anxiety or school or serenity,nature or anxiety,school or serenity,1,
iat,nature or anxiety | school or serenity,700.87,f,152,,tree,nature or anxiety,nature or anxiety or school or serenity,nature or anxiety,school or serenity,1,
iat,nature or anxiety | school or serenity,564.92,f,153,,alarm,nature or anxiety,nature or anxiety or school or serenity,nature or anxiety,school or serenity,1,
iat,nature or anxiety | school or serenity,606.25,f,154,,gentle,school or serenity,nature or anxiety or school or serenity,nature or anxiety,school or serenity,0,
iat,nature or anxiety | school or serenity,681.45,f,155,,river,nature or anxiety,nature or anxiety or school or serenity,nature or anxiety,school or serenity,1,
iat,nature or anxiety | school or serenity,569.8,j,156,,soothe,school or serenity,nature or anxiety or school or serenity,nature or anxiety,school or serenity,1,
iat,nature or anxiety | school or serenity,651.43,f,157,,worry,nature or anxiety,nature or anxiety or school or serenity,nature or anxiety,school or serenity,1,
iat,nature or anxiety | school or serenity,811.58,j,158,,campus,school or serenity,nature or anxiety or school or serenity,nature or anxiety,school or serenity,1,
iat,nature or anxiety | school or serenity,864.25,j,159,,meadow,nature or anxiety,nature or anxiety or school or serenity,nature or anxiety,school or serenity,0,
iat,nature or anxiety | school or serenity,769.48,j,160,,relax,school or serenity,nature or anxiety or school or serenity,nature or anxiety,school or serenity,1,
iat,nature or anxiety | school or serenity,591.58,j,161,,quiet,school or serenity,nature or anxiety or school or serenity,nature or anxiety,school or serenity,1,
iat,nature or anxiety | school or serenity,679.24,f,162,,breeze,nature or anxiety,nature or anxiety or school or serenity,nature or anxiety,school or serenity,1,
iat,nature or anxiety | school or serenity,639.72,f,163,,tree,nature or anxiety,nature or anxiety or school or serenity,nature or anxiety,school or serenity,1,
iat,nature or anxiety | school or serenity,763.44,f,164,,forest,nature or anxiety,nature or anxiety or school or serenity,nature or anxiety,school or serenity,1,
iat,nature or anxiety | school or serenity,769.82,f,165,,meadow,nature or anxiety,nature or anxiety or school or serenity,nature or anxiety,school or serenity,1,
iat,nature or anxiety | school or serenity,783.0,j,166,,class,school or serenity,nature or anxiety or school or serenity,nature or anxiety,school or serenity,1,
iat,nature or anxiety | school or serenity,646.0,f,167,,tree,nature or anxiety,nature or anxiety or school or serenity,nature or anxiety,school or serenity,1,
iat,nature or anxiety | school or serenity,829.14,f,168,,breathe,school or serenity,nature or anxiety or school or serenity,nature or anxiety,school or serenity,0,
iat,nature or anxiety | school or serenity,607.74,j,169,,homework,school or serenity,nature or anxiety or school or serenity,nature or anxiety,school or serenity,1,
iat,nature or anxiety | school or serenity,650.28,j,170,,exam,school or serenity,nature or anxiety or school or serenity,nature or anxiety,school or serenity,1,
iat,nature or anxiety | school or serenity,744.94,f,171,,ocean,nature or anxiety,nature or anxiety or school or serenity,nature or anxiety,school or serenity,1,
iat,nature or anxiety | school or serenity,355.96,f,172,,river,nature or anxiety,nature or anxiety or school or serenity,nature or anxiety,school or serenity,1,
iat,nature or anxiety | school or serenity,564.48,j,173,,homework,school or serenity,nature or anxiety or school or serenity,nature or anxiety,school or serenity,1,
iat,nature or anxiety | school or serenity,631.21,f,174,,nervous,nature or anxiety,nature or anxiety or school or serenity,nature or anxiety,school or serenity,1,
iat,nature or anxiety | school or serenity,660.21,f,175,,calm,school or serenity,nature or anxiety or school or serenity,nature or anxiety,school or serenity,0,
iat,nature or anxiety | school or serenity,723.08,f,176,,stress,nature or anxiety,nature or anxiety or school or serenity,nature or anxiety,school or serenity,1,
Questionnaire,,,"{""question1"": ""1"", ""question2"": 2, ""question3"": 5, ""question4"": 1, ""question5"": 1, ""question6"": ""5"", ""question7"": null}",177,,,,,,,,Q1-Q7
