trialType,block,rt,response,trial_index,time_elapsed,word,expectedCategory,expectedCategoryAsDisplayed,leftCategory,rightCategory,correct,question_order
iat,serenity | anxiety,669.09,j,1,,nervous,anxiety,serenity or anxiety,serenity,anxiety,1,
iat,serenity | anxiety,590.33,j,2,,unease,anxiety,serenity or anxiety,serenity,anxiety,1,
iat,serenity | anxiety,596.1,f,3,,relax,serenity,serenity or anxiety,serenity,anxiety,1,
iat,serenity | anxiety,502.04,j,4,,panic,anxiety,serenity or anxiety,serenity,anxiety,1,
iat,serenity | anxiety,725.74,f,5,,peace,serenity,serenity or anxiety,serenity,anxiety,1,
iat,serenity | anxiety,691.75,j,6,,worry,anxiety,serenity or anxiety,serenity,anxiety,1,
iat,serenity | anxiety,685.59,f,7,,gentle,serenity,serenity or anxiety,serenity,anxiety,1,
iat,serenity | anxiety,800.67,j,8,,alarm,anxiety,serenity or anxiety,serenity,anxiety,1,
iat,serenity | anxiety,608.95,f,9,,quiet,serenity,serenity or anxiety,serenity,anxiety,1,
iat,serenity | anxiety,872.62,f,10,,peace,serenity,serenity or anxiety,serenity,anxiety,1,
iat,serenity | anxiety,731.63,f,11,,quiet,serenity,serenity or anxiety,serenity,anxiety,1,
iat,serenity | anxiety,647.22,j,12,,stress,anxiety,serenity or anxiety,serenity,anxiety,1,
iat,serenity | anxiety,541.05,f,13,,soothe,serenity,serenity or anxiety,serenity,anxiety,1,
iat,serenity | anxiety,690.62,f,14,,quiet,serenity,serenity or anxiety,serenity,anxiety,1,
iat,serenity | anxiety,484.71,j,15,,panic,anxiety,serenity or anxiety,serenity,anxiety,1,
iat,serenity | anxiety,485.44,j,16,,quiet,serenity,serenity or anxiety,serenity,anxiety,0,
iat,serenity | anxiety,531.85,j,17,,unease,anxiety,serenity or anxiety,serenity,anxiety,1,
iat,serenity | anxiety,590.28,f,18,,quiet,serenity,serenity or anxiety,serenity,anxiety,1,
iat,serenity | anxiety,440.07,f,19,,soothe,serenity,serenity or anxiety,serenity,anxiety,1,
iat,serenity | anxiety,468.81,j,20,,fear,anxiety,serenity or anxiety,serenity,anxiety,1,
iat,serenity | anxiety,762.64,j,21,,alarm,anxiety,serenity or anxiety,serenity,anxiety,1,
iat,serenity | anxiety,746.3,j,22,,unease,anxiety,serenity or anxiety,serenity,anxiety,1,
iat,serenity | anxiety,732.26,j,23,,stress,anxiety,serenity or anxiety,serenity,anxiety,1,
iat,serenity | anxiety,677.94,f,24,,relax,serenity,serenity or anxiety,serenity,anxiety,1,
iat,nature | school,871.67,f,25,,river,nature,nature or school,nature,school,1,
iat,nature | school,484.23,j,26,,forest,nature,nature or school,nature,school,0,
iat,nature | school,638.93,f,27,,teacher,school,nature or school,nature,school,0,
iat,nature | school,565.99,f,28,,tree,nature,nature or school,nature,school,1,
iat,nature | school,399.07,j,29,,essay,school,nature or school,nature,school,1,
iat,nature | school,569.41,j,30,,campus,school,nature or school,nature,school,1,
iat,nature | school,573.33,j,31,,campus,school,nature or school,nature,school,1,
iat,nature | school,507.46,f,32,,forest,nature,nature or school,nature,school,1,
iat,nature | school,579.36,f,33,,lake,nature,nature or school,nature,school,1,
iat,nature | school,471.05,j,34,,class,school,nature or school,nature,school,1,
iat,nature | school,695.96,f,35,,breeze,nature,nature or school,nature,school,1,
iat,nature | school,502.4,f,36,,essay,school,nature or school,nature,school,0,
iat,nature | school,713.1,j,37,,lecture,school,nature or school,nature,school,1,
iat,nature | school,697.98,f,38,,grade,school,nature or school,nature,school,0,
iat,nature | school,575.75,f,39,,forest,nature,nature or school,nature,school,1,
iat,nature | school,835.24,j,40,,grade,school,nature or school,nature,school,1,
iat,nature | school,813.03,j,41,,essay,school,nature or school,nature,school,1,
iat,nature | school,604.78,j,42,,exam,school,nature or school,nature,school,1,
iat,nature | school,472.08,j,43,,lecture,school,nature or school,nature,school,1,
iat,nature | school,700.85,j,44,,campus,school,nature or school,nature,school,1,
iat,nature | school,507.1,f,45,,grade,school,nature or school,nature,school,0,
iat,nature | school,508.74,f,46,,mountain,nature,nature or school,nature,school,1,
iat,nature | school,579.58,j,47,,lecture,school,nature or school,nature,school,1,
iat,nature | school,567.37,j,48,,exam,school,nature or school,nature,school,1,
iat,nature or serenity | school or anxiety,618.26,j,49,,nervous,school or anxiety,nature or serenity or school or anxiety,nature or serenity,school or anxiety,1,
iat,nature or serenity | school or anxiety,650.69,f,50,,soothe,nature or serenity,nature or serenity or school or anxiety,nature or serenity,school or anxiety,1,
iat,nature or serenity | school or anxiety,648.42,f,51,,peace,nature or serenity,nature or serenity or school or anxiety,nature or serenity,school or anxiety,1,
iat,nature or serenity | school or anxiety,448.42,j,52,,ocean,nature or serenity,nature or serenity or school or anxiety,nature or serenity,school or anxiety,0,
iat,nature or serenity | school or anxiety,646.38,j,53,,lecture,school or anxiety,nature or serenity or school or anxiety,nature or serenity,school or anxiety,1,
iat,nature or serenity | school or anxiety,402.54,j,54,,exam,school or anxiety,nature or serenity or school or anxiety,nature or serenity,school or anxiety,1,
iat,nature or serenity | school or anxiety,557.33,j,55,,campus,school or anxiety,nature or serenity or school or anxiety,nature or serenity,school or anxiety,1,
iat,nature or serenity | school or anxiety,542.77,j,56,,class,school or anxiety,nature or serenity or school or anxiety,nature or serenity,school or anxiety,1,
iat,nature or serenity | school or anxiety,773.94,j,57,,stress,school or anxiety,nature or serenity or school or anxiety,nature or serenity,school or anxiety,1,
iat,nature or serenity | school or anxiety,575.1,f,58,,meadow,nature or serenity,nature or serenity or school or anxiety,nature or serenity,school or anxiety,1,
iat,nature or serenity | school or anxiety,650.84,j,59,,alarm,school or anxiety,nature or serenity or school or anxiety,nature or serenity,school or anxiety,1,
iat,nature or serenity | school or anxiety,615.13,j,60,,campus,school or anxiety,nature or serenity or school or anxiety,nature or serenity,school or anxiety,1,
iat,nature or serenity | school or anxiety,438.48,f,61,,river,nature or serenity,nature or serenity or school or anxiety,nature or serenity,school or anxiety,1,
iat,nature or serenity | school or anxiety,535.36,j,62,,unease,school or anxiety,nature or serenity or school or anxiety,nature or serenity,school or anxiety,1,
iat,nature or serenity | school or anxiety,703.0,f,63,,soothe,nature or serenity,nature or serenity or school or anxiety,nature or serenity,school or anxiety,1,
iat,nature or serenity | school or anxiety,380.05,j,64,,teacher,school or anxiety,nature or serenity or school or anxiety,nature or serenity,school or anxiety,1,
iat,nature or serenity | school or anxiety,516.41,f,65,,nervous,school or anxiety,nature or serenity or school or anxiety,nature or serenity,school or anxiety,0,
iat,nature or serenity | school or anxiety,553.66,j,66,,panic,school or anxiety,nature or serenity or school or anxiety,nature or serenity,school or anxiety,1,
iat,nature or serenity | school or anxiety,687.25,f,67,,ocean,nature or serenity,nature or serenity or school or anxiety,nature or serenity,school or anxiety,1,
iat,nature or serenity | school or anxiety,623.2,f,68,,nervous,school or anxiety,nature or serenity or school or anxiety,nature or serenity,school or anxiety,0,
iat,nature or serenity | school or anxiety,707.89,f,69,,meadow,nature or serenity,nature or serenity or school or anxiety,nature or serenity,school or anxiety,1,
iat,nature or serenity | school or anxiety,562.88,j,70,,campus,school or anxiety,nature or serenity or school or anxiety,nature or serenity,school or anxiety,1,
iat,nature or serenity | school or anxiety,695.39,f,71,,mountain,nature or serenity,nature or serenity or school or anxiety,nature or serenity,school or anxiety,1,
iat,nature or serenity | school or anxiety,556.06,f,72,,quiet,nature or serenity,nature or serenity or school or anxiety,nature or serenity,school or anxiety,1,
iat,nature or serenity | school or anxiety,725.88,j,73,,nervous,school or anxiety,nature or serenity or school or anxiety,nature or serenity,school or anxiety,1,
iat,nature or serenity | school or anxiety,451.06,j,74,,worry,school or anxiety,nature or serenity or school or anxiety,nature or serenity,school or anxiety,1,
iat,nature or serenity | school or anxiety,505.2,j,75,,stress,school or anxiety,nature or serenity or school or anxiety,nature or serenity,school or anxiety,1,
iat,nature or serenity | school or anxiety,723.25,j,76,,panic,school or anxiety,nature or serenity or school or anxiety,nature or serenity,school or anxiety,1,
iat,nature or serenity | school or anxiety,856.2,f,77,,river,nature or serenity,nature or serenity or school or anxiety,nature or serenity,school or anxiety,1,
iat,nature or serenity | school or anxiety,657.21,f,78,,calm,nature or serenity,nature or serenity or school or anxiety,nature or serenity,school or anxiety,1,
iat,nature or serenity | school or anxiety,669.2,f,79,,ocean,nature or serenity,nature or serenity or school or anxiety,nature or serenity,school or anxiety,1,
iat,nature or serenity | school or anxiety,860.2,f,80,,peace,nature or serenity,nature or serenity or school or anxiety,nature or serenity,school or anxiety,1,
iat,nature or serenity | school or anxiety,614.75,f,81,,relax,nature or serenity,nature or serenity or school or anxiety,nature or serenity,school or anxiety,1,
iat,nature or serenity | school or anxiety,399.55,j,82,,panic,school or anxiety,nature or serenity or school or anxiety,nature or serenity,school or anxiety,1,
iat,nature or serenity | school or anxiety,577.8,j,83,,tension,school or anxiety,nature or serenity or school or anxiety,nature or serenity,school or anxiety,1,
iat,nature or serenity | school or anxiety,611.63,j,84,,alarm,school or anxiety,nature or serenity or school or anxiety,nature or serenity,school or anxiety,1,
iat,nature or serenity | school or anxiety,687.16,j,85,,nervous,school or anxiety,nature or serenity or school or anxiety,nature or serenity,school or anxiety,1,
iat,nature or serenity | school or anxiety,406.16,f,86,,unease,school or anxiety,nature or serenity or school or anxiety,nature or serenity,school or anxiety,0,
iat,nature or serenity | school or anxiety,604.05,j,87,,stress,school or anxiety,nature or serenity or school or anxiety,nature or serenity,school or anxiety,1,
iat,nature or serenity | school or anxiety,632.6,j,88,,alarm,school or anxiety,nature or serenity or school or anxiety,nature or serenity,school or anxiety,1,
iat,nature or serenity | school or anxiety,408.88,f,89,,ocean,nature or serenity,nature or serenity or school or anxiety,nature or serenity,school or anxiety,1,
iat,nature or serenity | school or anxiety,445.94,f,90,,lake,nature or serenity,nature or serenity or school or anxiety,nature or serenity,school or anxiety,1,
iat,nature or serenity | school or anxiety,410.17,j,91,,lecture,school or anxiety,nature or serenity or school or anxiety,nature or serenity,school or anxiety,1,
iat,nature or serenity | school or anxiety,592.35,f,92,,breathe,nature or serenity,nature or serenity or school or anxiety,nature or serenity,school or anxiety,1,
iat,nature or serenity | school or anxiety,667.54,f,93,,breathe,nature or serenity,nature or serenity or school or anxiety,nature or serenity,school or anxiety,1,
iat,nature or serenity | school or anxiety,673.12,f,94,,gentle,nature or serenity,nature or serenity or school or anxiety,nature or serenity,school or anxiety,1,
iat,nature or serenity | school or anxiety,488.15,j,95,,class,school or anxiety,nature or serenity or school or anxiety,nature or serenity,school or anxiety,1,
iat,nature or serenity | school or anxiety,611.51,j,96,,nervous,school or anxiety,nature or serenity or school or anxiety,nature or serenity,school or anxiety,1,
iat,nature or serenity | school or anxiety,446.21,j,97,,panic,school or anxiety,nature or serenity or school or anxiety,nature or serenity,school or anxiety,1,
iat,nature or serenity | school or anxiety,602.06,j,98,,homework,school or anxiety,nature or serenity or school or anxiety,nature or serenity,school or anxiety,1,
iat,nature or serenity | school or anxiety,778.5,j,99,,lecture,school or anxiety,nature or serenity or school or anxiety,nature or serenity,school or anxiety,1,
iat,nature or serenity | school or anxiety,546.24,j,100,,tension,school or anxiety,nature or serenity or school or anxiety,nature or serenity,school or anxiety,1,
iat,nature or serenity | school or anxiety,536.0,j,101,,forest,nature or serenity,nature or serenity or school or anxiety,nature or serenity,school or anxiety,0,
iat,nature or serenity | school or anxiety,602.42,j,102,,essay,school or anxiety,nature or serenity or school or anxiety,nature or serenity,school or anxiety,1,
iat,nature or serenity | school or anxiety,579.65,j,103,,nervous,school or anxiety,nature or serenity or school or anxiety,nature or serenity,school or anxiety,1,
iat,nature or serenity | school or anxiety,662.4,f,104,,tree,nature or serenity,nature or serenity or school or anxiety,nature or serenity,school or anxiety,1,
iat,nature or serenity | school or anxiety,661.63,f,105,,mountain,nature or serenity,nature or serenity or school or anxiety,nature or serenity,school or anxiety,1,
iat,nature or serenity | school or anxiety,587.39,j,106,,teacher,school or anxiety,nature or serenity or school or anxiety,nature or serenity,school or anxiety,1,
iat,nature or serenity | school or anxiety,375.98,j,107,,worry,school or anxiety,nature or serenity or school or anxiety,nature or serenity,school or anxiety,1,
iat,nature or serenity | school or anxiety,803.31,j,108,,panic,school or anxiety,nature or serenity or school or anxiety,nature or serenity,school or anxiety,1,
iat,nature or serenity | school or anxiety,862.44,j,109,,fear,school or anxiety,nature or serenity or school or anxiety,nature or serenity,school or anxiety,1,
iat,nature or serenity | school or anxiety,635.52,f,110,,mountain,nature or serenity,nature or serenity or school or anxiety,nature or serenity,school or anxiety,1,
iat,nature or serenity | school or anxiety,632.23,f,111,,rest,nature or serenity,nature or serenity or school or anxiety,nature or serenity,school or anxiety,1,
iat,nature or serenity | school or anxiety,494.89,j,112,,class,school or anxiety,nature or serenity or school or anxiety,nature or serenity,school or anxiety,1,
iat,nature or anxiety | school or serenity,707.58,f,113,,lake,nature or anxiety,nature or anxiety or school or serenity,nature or anxiety,school or serenity,1,
iat,nature or anxiety | school or serenity,469.41,j,114,,calm,school or serenity,nature or anxiety or school or serenity,nature or anxiety,school or serenity,1,
iat,nature or anxiety | school or serenity,743.1,j,115,,grade,school or serenity,nature or anxiety or school or serenity,nature or anxiety,school or serenity,1,
iat,nature or anxiety | school or serenity,592.91,j,116,,relax,school or serenity,nature or anxiety or school or serenity,nature or anxiety,school or serenity,1,
iat,nature or anxiety | school or serenity,687.26,j,117,,homework,school or serenity,nature or anxiety or school or serenity,nature or anxiety,school or serenity,1,
iat,nature or anxiety | school or serenity,501.16,f,118,,alarm,nature or anxiety,nature or anxiety or school or serenity,nature or anxiety,school or serenity,1,
iat,nature or anxiety | school or serenity,693.82,f,119,,lecture,school or serenity,nature or anxiety or school or serenity,nature or anxiety,school or serenity,0,
iat,nature or anxiety | school or serenity,565.75,j,120,,stress,nature or anxiety,nature or anxiety or school or serenity,nature or anxiety,school or serenity,0,
iat,nature or anxiety | school or serenity,808.55,f,121,,stress,nature or anxiety,nature or anxiety or school or serenity,nature or anxiety,school or serenity,1,
iat,nature or anxiety | school or serenity,729.52,j,122,,river,nature or anxiety,nature or anxiety or school or serenity,nature or anxiety,school or serenity,0,
iat,nature or anxiety | school or serenity,612.98,f,123,,panic,nature or anxiety,nature or anxiety or school or serenity,nature or anxiety,school or serenity,1,
iat,nature or anxiety | school or serenity,570.91,j,124,,teacher,school or serenity,nature or anxiety or school or serenity,nature or anxiety,school or serenity,1,
iat,nature or anxiety | school or serenity,681.16,f,125,,meadow,nature or anxiety,nature or anxiety or school or serenity,nature or anxiety,school or serenity,1,
iat,nature or anxiety | school or serenity,575.99,f,126,,nervous,nature or anxiety,nature or anxiety or school or serenity,nature or anxiety,school or serenity,1,
iat,nature or anxiety | school or serenity,683.76,f,127,,panic,nature or anxiety,nature or anxiety or school or serenity,nature or anxiety,school or serenity,1,
iat,nature or anxiety | school or serenity,810.38,f,128,,river,nature or anxiety,nature or anxiety or school or serenity,nature or anxiety,school or serenity,1,
iat,nature or anxiety | school or serenity,916.59,j,129,,peace,school or serenity,nature or anxiety or school or serenity,nature or anxiety,school or serenity,1,
iat,nature or anxiety | school or serenity,747.48,j,130,,exam,school or serenity,nature or anxiety or school or serenity,nature or anxiety,school or serenity,1,
iat,nature or anxiety | school or serenity,698.16,f,131,,panic,nature or anxiety,nature or anxiety or school or serenity,nature or anxiety,school or serenity,1,
iat,nature or anxiety | school or serenity,653.29,j,132,,exam,school or serenity,nature or anxiety or school or serenity,nature or anxiety,school or serenity,1,
iat,nature or anxiety | school or serenity,735.26,f,133,,unease,nature or anxiety,nature or anxiety or school or serenity,nature or anxiety,school or serenity,1,
iat,nature or anxiety | school or serenity,398.08,j,134,,ocean,nature or anxiety,nature or anxiety or school or serenity,nature or anxiety,school or serenity,0,
iat,nature or anxiety | school or serenity,661.38,f,135,,worry,nature or anxiety,nature or anxiety or school or serenity,nature or anxiety,school or serenity,1,
iat,nature or anxiety | school or serenity,610.02,f,136,,calm,school or serenity,nature or anxiety or school or serenity,nature or anxiety,school or serenity,0,
iat,nature or anxiety | school or serenity,634.7,j,137,,soothe,school or serenity,nature or anxiety or school or serenity,nature or anxiety,school or serenity,1,
iat,nature or anxiety | school or serenity,530.69,j,138,,unease,nature or anxiety,nature or anxiety or school or serenity,nature or anxiety,school or serenity,0,
iat,nature or anxiety | school or serenity,631.29,f,139,,tree,nature or anxiety,nature or anxiety or school or serenity,nature or anxiety,school or serenity,1,
iat,nature or anxiety | school or serenity,854.26,j,140,,worry,nature or anxiety,nature or anxiety or school or serenity,nature or anxiety,school or serenity,0,
iat,nature or anxiety | school or serenity,617.25,j,141,,homework,school or serenity,nature or anxiety or school or serenity,nature or anxiety,school or serenity,1,
iat,nature or anxiety | school or serenity,653.52,j,142,,homework,school or serenity,nature or anxiety or school or serenity,nature or anxiety,school or serenity,1,
iat,nature or anxiety | school or serenity,649.23,f,143,,tree,nature or anxiety,nature or anxiety or school or serenity,nature or anxiety,school or serenity,1,
iat,nature or anxiety | school or serenity,532.84,f,144,,forest,nature or anxiety,nature or anxiety or school or serenity,nature or anxiety,school or serenity,1,
iat,nature or anxiety | school or serenity,792.55,j,145,,relax,school or serenity,nature or anxiety or school or serenity,nature or anxiety,school or serenity,1,
iat,nature or anxiety | school or serenity,822.38,j,146,,exam,school or serenity,nature or anxiety or school or serenity,nature or anxiety,school or serenity,1,
iat,nature or anxiety | school or serenity,736.46,j,147,,relax,school or serenity,nature or anxiety or school or serenity,nature or anxiety,school or serenity,1,
iat,nature or anxiety | school or serenity,411.65,f,148,,meadow,nature or anxiety,nature or anxiety or school or serenity,nature or anxiety,school or serenity,1,
iat,nature or anxiety | school or serenity,983.15,f,149,,lake,nature or anxiety,nature or anxiety or school or serenity,nature or anxiety,school or serenity,1,
iat,nature or anxiety | school or serenity,678.36,f,150,,worry,nature or anxiety,nature or anxiety or school or serenity,nature or anxiety,school or serenity,1,
iat,nature or anxiety | school or serenity,823.52,f,151,,tree,nature or anxiety,nature or anxiety or school or serenity,nature or anxiety,school or serenity,1,
iat,nature or anxiety | school or serenity,755.54,f,152,,ocean,nature or anxiety,nature or anxiety or school or serenity,nature or anxiety,school or serenity,1,
iat,nature or anxiety | school or serenity,633.65,j,153,,unease,nature or anxiety,nature or anxiety or school or serenity,nature or anxiety,school or serenity,0,
iat,nature or anxiety | school or serenity,701.37,j,154,,breathe,school or serenity,nature or anxiety or school or serenity,nature or anxiety,school or serenity,1,
iat,nature or anxiety | school or serenity,669.69,j,155,,lecture,school or serenity,nature or anxiety or school or serenity,nature or anxiety,school or serenity,1,
iat,nature or anxiety | school or serenity,660.52,f,156,,unease,nature or anxiety,nature or anxiety or school or serenity,nature or anxiety,school or serenity,1,
iat,nature or anxiety | school or serenity,414.22,f,157,,panic,nature or anxiety,nature or anxiety or school or serenity,nature or anxiety,school or serenity,1,
iat,nature or anxiety | school or serenity,683.62,j,158,,homework,school or serenity,nature or anxiety or school or serenity,nature or anxiety,school or serenity,1,
iat,nature or anxiety | school or serenity,613.3,j,159,,tree,nature or anxiety,nature or anxiety or school or serenity,nature or anxiety,school or serenity,0,
iat,nature or anxiety | school or serenity,487.01,f,160,,worry,nature or anxiety,nature or anxiety or school or serenity,nature or anxiety,school or serenity,1,
iat,nature or anxiety | school or serenity,622.76,f,161,,fear,nature or anxiety,nature or anxiety or school or serenity,nature or anxiety,school or serenity,1,
iat,nature or anxiety | school or serenity,667.5,f,162,,mountain,nature or anxiety,nature or anxiety or school or serenity,nature or anxiety,school or serenity,1,
iat,nature or anxiety | school or serenity,807.11,f,163,,fear,nature or anxiety,nature or anxiety or school or serenity,nature or anxiety,school or serenity,1,
iat,nature or anxiety | school or serenity,608.45,j,164,,campus,school or serenity,nature or anxiety or school or serenity,nature or anxiety,school or serenity,1,
iat,nature or anxiety | school or serenity,551.33,f,165,,tree,nature or anxiety,nature or anxiety or school or serenity,nature or anxiety,school or serenity,1,
iat,nature or anxiety | school or serenity,579.91,f,166,,breeze,nature or anxiety,nature or anxiety or school or serenity,nature or anxiety,school or serenity,1,
iat,nature or anxiety | school or serenity,506.45,f,167,,ocean,nature or anxiety,nature or anxiety or school or serenity,nature or anxiety,school or serenity,1,
iat,nature or anxiety | school or serenity,616.23,f,168,,panic,nature or anxiety,nature or anxiety or school or serenity,nature or anxiety,school or serenity,1,
iat,nature or anxiety | school or serenity,650.93,j,169,,essay,school or serenity,nature or anxiety or school or serenity,nature or anxiety,school or serenity,1,
iat,nature or anxiety | school or serenity,898.42,f,170,,stress,nature or anxiety,nature or anxiety or school or serenity,nature or anxiety,school or serenity,1,
iat,nature or anxiety | school or serenity,724.22,f,171,,stress,nature or anxiety,nature or anxiety or school or serenity,nature or anxiety,school or serenity,1,
iat,nature or anxiety | school or serenity,632.9,j,172,,campus,school or serenity,nature or anxiety or school or serenity,nature or anxiety,school or serenity,1,
iat,nature or anxiety | school or serenity,696.09,j,173,,river,nature or anxiety,nature or anxiety or school or serenity,nature or anxiety,school or serenity,0,
iat,nature or anxiety | school or serenity,599.82,j,174,,calm,school or serenity,nature or anxiety or school or serenity,nature or anxiety,school or serenity,1,
iat,nature or anxiety | school or serenity,451.91,j,175,,grade,school or serenity,nature or anxiety or school or serenity,nature or anxiety,school or serenity,1,
iat,nature or anxiety | school or serenity,688.31,j,176,,relax,school or serenity,nature or anxiety or school or serenity,nature or anxiety,school or serenity,1,
Questionnaire,,,"{""question1"": ""4"", ""question2"": ""3"", ""question3"": 1, ""question4"": 1, ""question5"": 5, ""question6"": 5, ""question7"": ""1""}",177,,,,,,,,Q1-Q7
