trialType,block,rt,response,trial_index,time_elapsed,word,expectedCategory,expectedCategoryAsDisplayed,leftCategory,rightCategory,correct,question_order
iat,nature | school,681.89,j,1,,teacher,school,nature or school,nature,school,1,
iat,nature | school,891.71,j,2,,campus,school,nature or school,nature,school,1,
iat,nature | school,659.54,f,3,,homework,school,nature or school,nature,school,0,
iat,nature | school,675.88,f,4,,breeze,nature,nature or school,nature,school,1,
iat,nature | school,623.48,j,5,,homework,school,nature or school,nature,school,1,
iat,nature | school,648.87,f,6,,ocean,nature,nature or school,nature,school,1,
iat,nature | school,495.24,j,7,,class,school,nature or school,nature,school,1,
iat,nature | school,725.23,j,8,,campus,school,nature or school,nature,school,1,
iat,nature | school,773.68,f,9,,mountain,nature,nature or school,nature,school,1,
iat,nature | school,569.11,f,10,,ocean,nature,nature or school,nature,school,1,
iat,nature | school,173.67,f,11,,meadow,nature,nature or school,nature,school,1,
iat,nature | school,457.89,j,12,,lecture,school,nature or school,nature,school,1,
iat,nature | school,599.66,j,13,,class,school,nature or school,nature,school,1,
iat,nature | school,537.4,f,14,,mountain,nature,nature or school,nature,school,1,
iat,nature | school,356.44,j,15,,class,school,nature or school,nature,school,1,
iat,nature | school,625.72,j,16,,lecture,school,nature or school,nature,school,1,
iat,nature | school,529.48,j,17,,homework,school,nature or school,nature,school,1,
iat,nature | school,604.93,f,18,,breeze,nature,nature or school,nature,school,1,
iat,nature | school,434.48,f,19,,tree,nature,nature or school,nature,school,1,
iat,nature | school,632.55,j,20,,exam,school,nature or school,nature,school,1,
iat,nature | school,653.82,j,21,,class,school,nature or school,nature,school,1,
iat,nature | school,704.97,f,22,,tree,nature,nature or school,nature,school,1,
iat,nature | school,512.29,j,23,,essay,school,nature or school,nature,school,1,
iat,nature | school,521.22,f,24,,river,nature,nature or school,nature,school,1,
iat,serenity | anxiety,495.42,j,25,,fear,anxiety,serenity or anxiety,serenity,anxiety,1,
iat,serenity | anxiety,594.68,j,26,,unease,anxiety,serenity or anxiety,serenity,anxiety,1,
iat,serenity | anxiety,734.3,j,27,,alarm,anxiety,serenity or anxiety,serenity,anxiety,1,
iat,serenity | anxiety,527.51,f,28,,calm,serenity,serenity or anxiety,serenity,anxiety,1,
iat,serenity | anxiety,547.75,j,29,,tension,anxiety,serenity or anxiety,serenity,anxiety,1,
iat,serenity | anxiety,530.77,f,30,,peace,serenity,serenity or anxiety,serenity,anxiety,1,
iat,serenity | anxiety,580.32,j,31,,calm,serenity,serenity or anxiety,serenity,anxiety,0,
iat,serenity | anxiety,434.16,f,32,,unease,anxiety,serenity or anxiety,serenity,anxiety,0,
iat,serenity | anxiety,507.44,j,33,,tension,anxiety,serenity or anxiety,serenity,anxiety,1,
iat,serenity | anxiety,500.92,f,34,,relax,serenity,serenity or anxiety,serenity,anxiety,1,
iat,serenity | anxiety,562.96,f,35,,breathe,serenity,serenity or anxiety,serenity,anxiety,1,
iat,serenity | anxiety,679.27,f,36,,calm,serenity,serenity or anxiety,serenity,anxiety,1,
iat,serenity | anxiety,550.71,j,37,,worry,anxiety,serenity or anxiety,serenity,anxiety,1,
iat,serenity | anxiety,553.93,f,38,,soothe,serenity,serenity or anxiety,serenity,anxiety,1,
iat,serenity | anxiety,550.18,j,39,,rest,serenity,serenity or anxiety,serenity,anxiety,0,
iat,serenity | anxiety,695.07,j,40,,tension,anxiety,serenity or anxiety,serenity,anxiety,1,
iat,serenity | anxiety,720.33,f,41,,peace,serenity,serenity or anxiety,serenity,anxiety,1,
iat,serenity | anxiety,597.37,f,42,,peace,serenity,serenity or anxiety,serenity,anxiety,1,
iat,serenity | anxiety,703.41,f,43,,relax,serenity,serenity or anxiety,serenity,anxiety,1,
iat,serenity | anxiety,678.24,f,44,,rest,serenity,serenity or anxiety,serenity,anxiety,1,
iat,serenity | anxiety,414.05,j,45,,stress,anxiety,serenity or anxiety,serenity,anxiety,1,
iat,serenity | anxiety,513.41,f,46,,relax,serenity,serenity or anxiety,serenity,anxiety,1,
iat,serenity | anxiety,608.23,f,47,,peace,serenity,serenity or anxiety,serenity,anxiety,1,
iat,serenity | anxiety,468.84,j,48,,unease,anxiety,serenity or anxiety,serenity,anxiety,1,
iat,nature or serenity | school or anxiety,722.52,j,49,,teacher,school or anxiety,nature or serenity or school or anxiety,nature or serenity,school or anxiety,1,
iat,nature or serenity | school or anxiety,746.14,f,50,,gentle,nature or serenity,nature or serenity or school or anxiety,nature or serenity,school or anxiety,1,
iat,nature or serenity | school or anxiety,456.25,j,51,,grade,school or anxiety,nature or serenity or school or anxiety,nature or serenity,school or anxiety,1,
iat,nature or serenity | school or anxiety,674.28,j,52,,tension,school or anxiety,nature or serenity or school or anxiety,nature or serenity,school or anxiety,1,
iat,nature or serenity | school or anxiety,558.94,j,53,,panic,school or anxiety,nature or serenity or school or anxiety,nature or serenity,school or anxiety,1,
iat,nature or serenity | school or anxiety,590.43,f,54,,breeze,nature or serenity,nature or serenity or school or anxiety,nature or serenity,school or anxiety,1,
iat,nature or serenity | school or anxiety,624.73,j,55,,breathe,nature or serenity,nature or serenity or school or anxiety,nature or serenity,school or anxiety,0,
iat,nature or serenity | school or anxiety,681.32,j,56,,essay,school or anxiety,nature or serenity or school or anxiety,nature or serenity,school or anxiety,1,
iat,nature or serenity | school or anxiety,737.44,f,57,,forest,nature or serenity,nature or serenity or school or anxiety,nature or serenity,school or anxiety,1,
iat,nature or serenity | school or anxiety,721.51,f,58,,river,nature or serenity,nature or serenity or school or anxiety,nature or serenity,school or anxiety,1,
iat,nature or serenity | school or anxiety,602.29,f,59,,soothe,nature or serenity,nature or serenity or school or anxiety,nature or serenity,school or anxiety,1,
iat,nature or serenity | school or anxiety,411.97,j,60,,nervous,school or anxiety,nature or serenity or school or anxiety,nature or serenity,school or anxiety,1,
iat,nature or serenity | school or anxiety,472.75,f,61,,gentle,nature or serenity,nature or serenity or school or anxiety,nature or serenity,school or anxiety,1,
iat,nature or serenity | school or anxiety,596.79,f,62,,soothe,nature or serenity,nature or serenity or school or anxiety,nature or serenity,school or anxiety,1,
iat,nature or serenity | school or anxiety,627.3,f,63,,relax,nature or serenity,nature or serenity or school or anxiety,nature or serenity,school or anxiety,1,
iat,nature or serenity | school or anxiety,584.28,f,64,,meadow,nature or serenity,nature or serenity or school or anxiety,nature or serenity,school or anxiety,1,
iat,nature or serenity | school or anxiety,522.82,j,65,,campus,school or anxiety,nature or serenity or school or anxiety,nature or serenity,school or anxiety,1,
iat,nature or serenity | school or anxiety,368.37,f,66,,forest,nature or serenity,nature or serenity or school or anxiety,nature or serenity,school or anxiety,1,
iat,nature or serenity | school or anxiety,432.62,j,67,,exam,school or anxiety,nature or serenity or school or anxiety,nature or serenity,school or anxiety,1,
iat,nature or serenity | school or anxiety,476.92,f,68,,quiet,nature or serenity,nature or serenity or school or anxiety,nature or serenity,school or anxiety,1,
iat,nature or serenity | school or anxiety,540.44,j,69,,forest,nature or serenity,nature or serenity or school or anxiety,nature or serenity,school or anxiety,0,
iat,nature or serenity | school or anxiety,378.14,f,70,,peace,nature or serenity,nature or serenity or school or anxiety,nature or serenity,school or anxiety,1,
iat,nature or serenity | school or anxiety,390.15,j,71,,lecture,school or anxiety,nature or serenity or school or anxiety,nature or serenity,school or anxiety,1,
iat,nature or serenity | school or anxiety,517.71,f,72,,river,nature or serenity,nature or serenity or school or anxiety,nature or serenity,school or anxiety,1,
iat,nature or serenity | school or anxiety,572.42,j,73,,unease,school or anxiety,nature or serenity or school or anxiety,nature or serenity,school or anxiety,1,
iat,nature or serenity | school or anxiety,461.9,j,74,,homework,school or anxiety,nature or serenity or school or anxiety,nature or serenity,school or anxiety,1,
iat,nature or serenity | school or anxiety,549.79,f,75,,lake,nature or serenity,nature or serenity or school or anxiety,nature or serenity,school or anxiety,1,
iat,nature or serenity | school or anxiety,491.4,f,76,,gentle,nature or serenity,nature or serenity or school or anxiety,nature or serenity,school or anxiety,1,
iat,nature or serenity | school or anxiety,783.28,f,77,,river,nature or serenity,nature or serenity or school or anxiety,nature or serenity,school or anxiety,1,
iat,nature or serenity | school or anxiety,699.25,j,78,,nervous,school or anxiety,nature or serenity or school or anxiety,nature or serenity,school or anxiety,1,
iat,nature or serenity | school or anxiety,668.81,j,79,,grade,school or anxiety,nature or serenity or school or anxiety,nature or serenity,school or anxiety,1,
iat,nature or serenity | school or anxiety,589.0,f,80,,meadow,nature or serenity,nature or serenity or school or anxiety,nature or serenity,school or anxiety,1,
iat,nature or serenity | school or anxiety,575.11,f,81,,ocean,nature or serenity,nature or serenity or school or anxiety,nature or serenity,school or anxiety,1,
iat,nature or serenity | school or anxiety,584.12,j,82,,stress,school or anxiety,nature or serenity or school or anxiety,nature or serenity,school or anxiety,1,
iat,nature or serenity | school or anxiety,403.66,f,83,,forest,nature or serenity,nature or serenity or school or anxiety,nature or serenity,school or anxiety,1,
iat,nature or serenity | school or anxiety,429.47,j,84,,unease,school or anxiety,nature or serenity or school or anxiety,nature or serenity,school or anxiety,1,
iat,nature or serenity | school or anxiety,577.84,j,85,,exam,school or anxiety,nature or serenity or school or anxiety,nature or serenity,school or anxiety,1,
iat,nature or serenity | school or anxiety,455.95,f,86,,meadow,nature or serenity,nature or serenity or school or anxiety,nature or serenity,school or anxiety,1,
iat,nature or serenity | school or anxiety,666.4,f,87,,breeze,nature or serenity,nature or serenity or school or anxiety,nature or serenity,school or anxiety,1,
iat,nature or serenity | school or anxiety,762.94,f,88,,quiet,nature or serenity,nature or serenity or school or anxiety,nature or serenity,school or anxiety,1,
iat,nature or serenity | school or anxiety,526.6,f,89,,ocean,nature or serenity,nature or serenity or school or anxiety,nature or serenity,school or anxiety,1,
iat,nature or serenity | school or anxiety,652.21,j,90,,grade,school or anxiety,nature or serenity or school or anxiety,nature or serenity,school or anxiety,1,
iat,nature or serenity | school or anxiety,649.61,j,91,,lecture,school or anxiety,nature or serenity or school or anxiety,nature or serenity,school or anxiety,1,
iat,nature or serenity | school or anxiety,506.29,f,92,,quiet,nature or serenity,nature or serenity or school or anxiety,nature or serenity,school or anxiety,1,
iat,nature or serenity | school or anxiety,535.56,f,93,,rest,nature or serenity,nature or serenity or school or anxiety,nature or serenity,school or anxiety,1,
iat,nature or serenity | school or anxiety,577.24,f,94,,gentle,nature or serenity,nature or serenity or school or anxiety,nature or serenity,school or anxiety,1,
iat,nature or serenity | school or anxiety,685.63,f,95,,gentle,nature or serenity,nature or serenity or school or anxiety,nature or serenity,school or anxiety,1,
iat,nature or serenity | school or anxiety,726.85,j,96,,lecture,school or anxiety,nature or serenity or school or anxiety,nature or serenity,school or anxiety,1,
iat,nature or serenity | school or anxiety,433.54,f,97,,ocean,nature or serenity,nature or serenity or school or anxiety,nature or serenity,school or anxiety,1,
iat,nature or serenity | school or anxiety,845.66,f,98,,ocean,nature or serenity,nature or serenity or school or anxiety,nature or serenity,school or anxiety,1,
iat,nature or serenity | school or anxiety,584.55,f,99,,rest,nature or serenity,nature or serenity or school or anxiety,nature or serenity,school or anxiety,1,
iat,nature or serenity | school or anxiety,583.15,f,100,,quiet,nature or serenity,nature or serenity or school or anxiety,nature or serenity,school or anxiety,1,
iat,nature or serenity | school or anxiety,555.94,j,101,,alarm,school or anxiety,nature or serenity or school or anxiety,nature or serenity,school or anxiety,1,
iat,nature or serenity | school or anxiety,738.07,j,102,,fear,school or anxiety,nature or serenity or school or anxiety,nature or serenity,school or anxiety,1,
iat,nature or serenity | school or anxiety,539.4,f,103,,ocean,nature or serenity,nature or serenity or school or anxiety,nature or serenity,school or anxiety,1,
iat,nature or serenity | school or anxiety,730.69,f,104,,mountain,nature or serenity,nature or serenity or school or anxiety,nature or serenity,school or anxiety,1,
iat,nature or serenity | school or anxiety,504.02,f,105,,quiet,nature or serenity,nature or serenity or school or anxiety,nature or serenity,school or anxiety,1,
iat,nature or serenity | school or anxiety,598.96,f,106,,forest,nature or serenity,nature or serenity or school or anxiety,nature or serenity,school or anxiety,1,
iat,nature or serenity | school or anxiety,468.17,f,107,,relax,nature or serenity,nature or serenity or school or anxiety,nature or serenity,school or anxiety,1,
iat,nature or serenity | school or anxiety,511.09,j,108,,nervous,school or anxiety,nature or serenity or school or anxiety,nature or serenity,school or anxiety,1,
iat,nature or serenity | school or anxiety,654.98,f,109,,forest,nature or serenity,nature or serenity or school or anxiety,nature or serenity,school or anxiety,1,
iat,nature or serenity | school or anxiety,656.61,j,110,,panic,school or anxiety,nature or serenity or school or anxiety,nature or serenity,school or anxiety,1,
iat,nature or serenity | school or anxiety,613.64,f,111,,breathe,nature or serenity,nature or serenity or school or anxiety,nature or serenity,school or anxiety,1,
iat,nature or serenity | school or anxiety,743.51,f,112,,nervous,school or anxiety,nature or serenity or school or anxiety,nature or serenity,school or anxiety,0,
iat,nature or anxiety | school or serenity,626.89,f,113,,meadow,nature or anxiety,nature or anxiety or school or serenity,nature or anxiety,school or serenity,1,
iat,nature or anxiety | school or serenity,439.08,f,114,,ocean,nature or anxiety,nature or anxiety or school or serenity,nature or anxiety,school or serenity,1,
iat,nature or anxiety | school or serenity,739.45,j,115,,breathe,school or serenity,nature or anxiety or school or serenity,nature or anxiety,school or serenity,1,
iat,nature or anxiety | school or serenity,802.1,j,116,,quiet,school or serenity,nature or anxiety or school or serenity,nature or anxiety,school or serenity,1,
iat,nature or anxiety | school or serenity,778.73,f,117,,fear,nature or anxiety,nature or anxiety or school or serenity,nature or anxiety,school or serenity,1,
iat,nature or anxiety | school or serenity,761.54,f,118,,panic,nature or anxiety,nature or anxiety or school or serenity,nature or anxiety,school or serenity,1,
iat,nature or anxiety | school or serenity,660.64,f,119,,calm,school or serenity,nature or anxiety or school or serenity,nature or anxiety,school or serenity,0,
iat,nature or anxiety | school or serenity,597.7,j,120,,campus,school or serenity,nature or anxiety or school or serenity,nature or anxiety,school or serenity,1,
iat,nature or anxiety | school or serenity,752.27,j,121,,campus,school or serenity,nature or anxiety or school or serenity,nature or anxiety,school or serenity,1,
iat,nature or anxiety | school or serenity,758.99,f,122,,river,nature or anxiety,nature or anxiety or school or serenity,nature or anxiety,school or serenity,1,
iat,nature or anxiety | school or serenity,474.47,j,123,,lecture,school or serenity,nature or anxiety or school or serenity,nature or anxiety,school or serenity,1,
iat,nature or anxiety | school or serenity,612.73,j,124,,grade,school or serenity,nature or anxiety or school or serenity,nature or anxiety,school or serenity,1,
iat,nature or anxiety | school or serenity,755.99,j,125,,homework,school or serenity,nature or anxiety or school or serenity,nature or anxiety,school or serenity,1,
iat,nature or anxiety | school or serenity,762.37,f,126,,ocean,nature or anxiety,nature or anxiety or school or serenity,nature or anxiety,school or serenity,1,
iat,nature or anxiety | school or serenity,783.82,j,127,,breeze,nature or anxiety,nature or anxiety or school or serenity,nature or anxiety,school or serenity,0,
iat,nature or anxiety | school or serenity,603.31,j,128,,breathe,school or serenity,nature or anxiety or school or serenity,nature or anxiety,school or serenity,1,
iat,nature or anxiety | school or serenity,837.12,j,129,,breathe,school or serenity,nature or anxiety or school or serenity,nature or anxiety,school or serenity,1,
iat,nature or anxiety | school or serenity,587.42,j,130,,breeze,nature or anxiety,nature or anxiety or school or serenity,nature or anxiety,school or serenity,0,
iat,nature or anxiety | school or serenity,649.08,j,131,,rest,school or serenity,nature or anxiety or school or serenity,nature or anxiety,school or serenity,1,
iat,nature or anxiety | school or serenity,727.38,j,132,,forest,nature or anxiety,nature or anxiety or school or serenity,nature or anxiety,school or serenity,0,
iat,nature or anxiety | school or serenity,810.6,j,133,,tree,nature or anxiety,nature or anxiety or school or serenity,nature or anxiety,school or serenity,0,
iat,nature or anxiety | school or serenity,593.16,j,134,,grade,school or serenity,nature or anxiety or school or serenity,nature or anxiety,school or serenity,1,
iat,nature or anxiety | school or serenity,780.02,j,135,,exam,school or serenity,nature or anxiety or school or serenity,nature or anxiety,school or serenity,1,
iat,nature or anxiety | school or serenity,604.36,j,136,,campus,school or serenity,nature or anxiety or school or serenity,nature or anxiety,school or serenity,1,
iat,nature or anxiety | school or serenity,496.35,j,137,,breathe,school or serenity,nature or anxiety or school or serenity,nature or anxiety,school or serenity,1,
iat,nature or anxiety | school or serenity,548.06,j,138,,soothe,school or serenity,nature or anxiety or school or serenity,nature or anxiety,school or serenity,1,
iat,nature or anxiety | school or serenity,696.37,j,139,,breathe,school or serenity,nature or anxiety or school or serenity,nature or anxiety,school or serenity,1,
iat,nature or anxiety | school or serenity,451.32,f,140,,tension,nature or anxiety,nature or anxiety or school or serenity,nature or anxiety,school or serenity,1,
iat,nature or anxiety | school or serenity,657.89,f,141,,fear,nature or anxiety,nature or anxiety or school or serenity,nature or anxiety,school or serenity,1,
iat,nature or anxiety | school or serenity,749.4,j,142,,class,school or serenity,nature or anxiety or school or serenity,nature or anxiety,school or serenity,1,
iat,nature or anxiety | school or serenity,776.08,f,143,,stress,nature or anxiety,nature or anxiety or school or serenity,nature or anxiety,school or serenity,1,
iat,nature or anxiety | school or serenity,680.71,f,144,,quiet,school or serenity,nature or anxiety or school or serenity,nature or anxiety,school or serenity,0,
iat,nature or anxiety | school or serenity,780.74,f,145,,ocean,nature or anxiety,nature or anxiety or school or serenity,nature or anxiety,school or serenity,1,
iat,nature or anxiety | school or serenity,689.2,f,146,,stress,nature or anxiety,nature or anxiety or school or serenity,nature or anxiety,school or serenity,1,
iat,nature or anxiety | school or serenity,858.47,j,147,,lecture,school or serenity,nature or anxiety or school or serenity,nature or anxiety,school or serenity,1,
iat,nature or anxiety | school or serenity,565.83,j,148,,unease,nature or anxiety,nature or anxiety or school or serenity,nature or anxiety,school or serenity,0,
iat,nature or anxiety | school or serenity,793.07,f,149,,stress,nature or anxiety,nature or anxiety or school or serenity,nature or anxiety,school or serenity,1,
iat,nature or anxiety | school or serenity,809.89,f,150,,unease,nature or anxiety,nature or anxiety or school or serenity,nature or anxiety,school or serenity,1,
iat,nature or anxiety | school or serenity,609.07,j,151,,quiet,school or serenity,nature or anxiety or school or serenity,nature or anxiety,school or serenity,1,
iat,nature or anxiety | school or serenity,661.44,f,152,,tension,nature or anxiety,nature or anxiety or school or serenity,nature or anxiety,school or serenity,1,
iat,nature or anxiety | school or serenity,681.28,j,153,,relax,school or serenity,nature or anxiety or school or serenity,nature or anxiety,school or serenity,1,
iat,nature or anxiety | school or serenity,633.34,j,154,,teacher,school or serenity,nature or anxiety or school or serenity,nature or anxiety,school or serenity,1,
iat,nature or anxiety | school or serenity,562.54,f,155,,breeze,nature or anxiety,nature or anxiety or school or serenity,nature or anxiety,school or serenity,1,
iat,nature or anxiety | school or serenity,774.27,f,156,,homework,school or serenity,nature or anxiety or school or serenity,nature or anxiety,school or serenity,0,
iat,nature or anxiety | school or serenity,789.36,f,157,,tension,nature or anxiety,nature or anxiety or school or serenity,nature or anxiety,school or serenity,1,
iat,nature or anxiety | school or serenity,710.83,j,158,,homework,school or serenity,nature or anxiety or school or serenity,nature or anxiety,school or serenity,1,
iat,nature or anxiety | school or serenity,789.38,j,159,,homework,school or serenity,nature or anxiety or school or serenity,nature or anxiety,school or serenity,1,
iat,nature or anxiety | school or serenity,561.83,j,160,,gentle,school or serenity,nature or anxiety or school or serenity,nature or anxiety,school or serenity,1,
iat,nature or anxiety | school or serenity,765.29,f,161,,stress,nature or anxiety,nature or anxiety or school or serenity,nature or anxiety,school or serenity,1,
iat,nature or anxiety | school or serenity,679.6,f,162,,lake,nature or anxiety,nature or anxiety or school or serenity,nature or anxiety,school or serenity,1,
iat,nature or anxiety | school or serenity,667.7,j,163,,quiet,school or serenity,nature or anxiety or school or serenity,nature or anxiety,school or serenity,1,
iat,nature or anxiety | school or serenity,721.46,f,164,,stress,nature or anxiety,nature or anxiety or school or serenity,nature or anxiety,school or serenity,1,
iat,nature or anxiety | school or serenity,671.32,j,165,,teacher,school or serenity,nature or anxiety or school or serenity,nature or anxiety,school or serenity,1,
iat,nature or anxiety | school or serenity,774.87,f,166,,grade,school or serenity,nature or anxiety or school or serenity,nature or anxiety,school or serenity,0,
iat,nature or anxiety | school or serenity,675.38,j,167,,exam,school or serenity,nature or anxiety or school or serenity,nature or anxiety,school or serenity,1,
iat,nature or anxiety | school or serenity,626.11,j,168,,relax,school or serenity,nature or anxiety or school or serenity,nature or anxiety,school or serenity,1,
iat,nature or anxiety | school or serenity,782.88,f,169,,worry,nature or anxiety,nature or anxiety or school or serenity,nature or anxiety,school or serenity,1,
iat,nature or anxiety | school or serenity,554.2,j,170,,panic,nature or anxiety,nature or anxiety or school or serenity,nature or anxiety,school or serenity,0,
iat,nature or anxiety | school or serenity,363.35,j,171,,gentle,school or serenity,nature or anxiety or school or serenity,nature or anxiety,school or serenity,1,
iat,nature or anxiety | school or serenity,645.52,j,172,,soothe,school or serenity,nature or anxiety or school or serenity,nature or anxiety,school or serenity,1,
iat,nature or anxiety | school or serenity,848.39,f,173,,stress,nature or anxiety,nature or anxiety or school or serenity,nature or anxiety,school or serenity,1,
iat,nature or anxiety | school or serenity,762.73,j,174,,teacher,school or serenity,nature or anxiety or school or serenity,nature or anxiety,school or serenity,1,
iat,nature or anxiety | school or serenity,653.68,j,175,,essay,school or serenity,nature or anxiety or school or serenity,nature or anxiety,school or serenity,1,
iat,nature or anxiety | school or serenity,753.1,f,176,,river,nature or anxiety,nature or anxiety or school or serenity,nature or anxiety,school or serenity,1,
Questionnaire,,,"{""question1"": 4, ""question2"": null, ""question3"": ""2"", ""question4"": 5, ""question5"": ""1"", ""question6"": ""1"", ""question7"": null}",177,,,,,,,,Q1-Q7
