trialType,block,rt,response,trial_index,time_elapsed,word,expectedCategory,expectedCategoryAsDisplayed,leftCategory,rightCategory,correct,question_order
iat,serenity | anxiety,831.88,j,1,,fear,anxiety,serenity or anxiety,serenity,anxiety,1,
iat,serenity | anxiety,547.04,f,2,,breathe,serenity,serenity or anxiety,serenity,anxiety,1,
iat,serenity | anxiety,693.5,j,3,,alarm,anxiety,serenity or anxiety,serenity,anxiety,1,
iat,serenity | anxiety,612.26,j,4,,calm,serenity,serenity or anxiety,serenity,anxiety,0,
iat,serenity | anxiety,642.78,f,5,,peace,serenity,serenity or anxiety,serenity,anxiety,1,
iat,serenity | anxiety,599.5,j,6,,worry,anxiety,serenity or anxiety,serenity,anxiety,1,
iat,serenity | anxiety,517.49,j,7,,worry,anxiety,serenity or anxiety,serenity,anxiety,1,
iat,serenity | anxiety,743.25,j,8,,tension,anxiety,serenity or anxiety,serenity,anxiety,1,
iat,serenity | anxiety,461.92,f,9,,soothe,serenity,serenity or anxiety,serenity,anxiety,1,
iat,serenity | anxiety,587.55,j,10,,panic,anxiety,serenity or anxiety,serenity,anxiety,1,
iat,serenity | anxiety,802.87,j,11,,rest,serenity,serenity or anxiety,serenity,anxiety,0,
iat,serenity | anxiety,562.82,f,12,,quiet,serenity,serenity or anxiety,serenity,anxiety,1,
iat,serenity | anxiety,352.08,f,13,,relax,serenity,serenity or anxiety,serenity,anxiety,1,
iat,serenity | anxiety,653.21,j,14,,panic,anxiety,serenity or anxiety,serenity,anxiety,1,
iat,serenity | anxiety,668.74,j,15,,fear,anxiety,serenity or anxiety,serenity,anxiety,1,
iat,serenity | anxiety,506.07,j,16,,unease,anxiety,serenity or anxiety,serenity,anxiety,1,
iat,serenity | anxiety,521.15,j,17,,fear,anxiety,serenity or anxiety,serenity,anxiety,1,
iat,serenity | anxiety,470.76,f,18,,gentle,serenity,serenity or anxiety,serenity,anxiety,1,
iat,serenity | anxiety,890.18,f,19,,breathe,serenity,serenity or anxiety,serenity,anxiety,1,
iat,serenity | anxiety,648.0,j,20,,fear,anxiety,serenity or anxiety,serenity,anxiety,1,
iat,serenity | anxiety,688.94,j,21,,panic,anxiety,serenity or anxiety,serenity,anxiety,1,
iat,serenity | anxiety,580.57,f,22,,gentle,serenity,serenity or anxiety,serenity,anxiety,1,
iat,serenity | anxiety,570.05,j,23,,panic,anxiety,serenity or anxiety,serenity,anxiety,1,
iat,serenity | anxiety,543.85,f,24,,relax,serenity,serenity or anxiety,serenity,anxiety,1,
iat,nature | school,458.28,j,25,,lecture,school,nature or school,nature,school,1,
iat,nature | school,477.94,f,26,,breeze,nature,nature or school,nature,school,1,
iat,nature | school,500.85,f,27,,lake,nature,nature or school,nature,school,1,
iat,nature | school,522.56,j,28,,exam,school,nature or school,nature,school,1,
iat,nature | school,632.76,j,29,,lecture,school,nature or school,nature,school,1,
iat,nature | school,470.55,j,30,,lecture,school,nature or school,nature,school,1,
iat,nature | school,850.72,j,31,,campus,school,nature or school,nature,school,1,
iat,nature | school,455.22,j,32,,lecture,school,nature or school,nature,school,1,
iat,nature | school,511.89,j,33,,grade,school,nature or school,nature,school,1,
iat,nature | school,518.53,j,34,,lake,nature,nature or school,nature,school,0,
iat,nature | school,516.7,j,35,,class,school,nature or school,nature,school,1,
iat,nature | school,304.18,j,36,,essay,school,nature or school,nature,school,1,
iat,nature | school,732.59,j,37,,forest,nature,nature or school,nature,school,0,
iat,nature | school,337.49,f,38,,forest,nature,nature or school,nature,school,1,
iat,nature | school,856.55,j,39,,campus,school,nature or school,nature,school,1,
iat,nature | school,771.6,j,40,,exam,school,nature or school,nature,school,1,
iat,nature | school,480.52,j,41,,essay,school,nature or school,nature,school,1,
iat,nature | school,747.69,j,42,,class,school,nature or school,nature,school,1,
iat,nature | school,639.3,j,43,,tree,nature,nature or school,nature,school,0,
iat,nature | school,666.4,j,44,,grade,school,nature or school,nature,school,1,
iat,nature | school,751.22,f,45,,mountain,nature,nature or school,nature,school,1,
iat,nature | school,591.32,f,46,,ocean,nature,nature or school,nature,school,1,
iat,nature | school,702.62,f,47,,ocean,nature,nature or school,nature,school,1,
iat,nature | school,792.35,j,48,,exam,school,nature or school,nature,school,1,
iat,nature or serenity | school or anxiety,399.39,f,49,,ocean,nature or serenity,nature or serenity or school or anxiety,nature or serenity,school or anxiety,1,
iat,nature or serenity | school or anxiety,506.05,j,50,,teacher,school or anxiety,nature or serenity or school or anxiety,nature or serenity,school or anxiety,1,
iat,nature or serenity | school or anxiety,558.87,j,51,,stress,school or anxiety,nature or serenity or school or anxiety,nature or serenity,school or anxiety,1,
iat,nature or serenity | school or anxiety,646.32,f,52,,forest,nature or serenity,nature or serenity or school or anxiety,nature or serenity,school or anxiety,1,
iat,nature or serenity | school or anxiety,586.55,j,53,,homework,school or anxiety,nature or serenity or school or anxiety,nature or serenity,school or anxiety,1,
iat,nature or serenity | school or anxiety,520.67,j,54,,fear,school or anxiety,nature or serenity or school or anxiety,nature or serenity,school or anxiety,1,
iat,nature or serenity | school or anxiety,440.61,j,55,,lecture,school or anxiety,nature or serenity or school or anxiety,nature or serenity,school or anxiety,1,
iat,nature or serenity | school or anxiety,544.44,j,56,,unease,school or anxiety,nature or serenity or school or anxiety,nature or serenity,school or anxiety,1,
iat,nature or serenity | school or anxiety,568.68,j,57,,grade,school or anxiety,nature or serenity or school or anxiety,nature or serenity,school or anxiety,1,
iat,nature or serenity | school or anxiety,819.97,f,58,,quiet,nature or serenity,nature or serenity or school or anxiety,nature or serenity,school or anxiety,1,
iat,nature or serenity | school or anxiety,794.8,j,59,,teacher,school or anxiety,nature or serenity or school or anxiety,nature or serenity,school or anxiety,1,
iat,nature or serenity | school or anxiety,361.82,j,60,,nervous,school or anxiety,nature or serenity or school or anxiety,nature or serenity,school or anxiety,1,
iat,nature or serenity | school or anxiety,642.64,f,61,,breathe,nature or serenity,nature or serenity or school or anxiety,nature or serenity,school or anxiety,1,
iat,nature or serenity | school or anxiety,604.65,f,62,,peace,nature or serenity,nature or serenity or school or anxiety,nature or serenity,school or anxiety,1,
iat,nature or serenity | school or anxiety,651.07,j,63,,lecture,school or anxiety,nature or serenity or school or anxiety,nature or serenity,school or anxiety,1,
iat,nature or serenity | school or anxiety,624.25,f,64,,gentle,nature or serenity,nature or serenity or school or anxiety,nature or serenity,school or anxiety,1,
iat,nature or serenity | school or anxiety,683.19,j,65,,teacher,school or anxiety,nature or serenity or school or anxiety,nature or serenity,school or anxiety,1,
iat,nature or serenity | school or anxiety,560.32,f,66,,lake,nature or serenity,nature or serenity or school or anxiety,nature or serenity,school or anxiety,1,
iat,nature or serenity | school or anxiety,600.01,f,67,,gentle,nature or serenity,nature or serenity or school or anxiety,nature or serenity,school or anxiety,1,
iat,nature or serenity | school or anxiety,596.27,f,68,,rest,nature or serenity,nature or serenity or school or anxiety,nature or serenity,school or anxiety,1,
iat,nature or serenity | school or anxiety,788.83,j,69,,exam,school or anxiety,nature or serenity or school or anxiety,nature or serenity,school or anxiety,1,
iat,nature or serenity | school or anxiety,579.03,f,70,,tree,nature or serenity,nature or serenity or school or anxiety,nature or serenity,school or anxiety,1,
iat,nature or serenity | school or anxiety,541.15,f,71,,mountain,nature or serenity,nature or serenity or school or anxiety,nature or serenity,school or anxiety,1,
iat,nature or serenity | school or anxiety,481.22,f,72,,unease,school or anxiety,nature or serenity or school or anxiety,nature or serenity,school or anxiety,0,
iat,nature or serenity | school or anxiety,653.87,j,73,,alarm,school or anxiety,nature or serenity or school or anxiety,nature or serenity,school or anxiety,1,
iat,nature or serenity | school or anxiety,566.2,j,74,,homework,school or anxiety,nature or serenity or school or anxiety,nature or serenity,school or anxiety,1,
iat,nature or serenity | school or anxiety,688.21,f,75,,quiet,nature or serenity,nature or serenity or school or anxiety,nature or serenity,school or anxiety,1,
iat,nature or serenity | school or anxiety,317.84,j,76,,grade,school or anxiety,nature or serenity or school or anxiety,nature or serenity,school or anxiety,1,
iat,nature or serenity | school or anxiety,706.38,f,77,,mountain,nature or serenity,nature or serenity or school or anxiety,nature or serenity,school or anxiety,1,
iat,nature or serenity | school or anxiety,738.05,f,78,,calm,nature or serenity,nature or serenity or school or anxiety,nature or serenity,school or anxiety,1,
iat,nature or serenity | school or anxiety,745.1,j,79,,nervous,school or anxiety,nature or serenity or school or anxiety,nature or serenity,school or anxiety,1,
iat,nature or serenity | school or anxiety,678.48,j,80,,teacher,school or anxiety,nature or serenity or school or anxiety,nature or serenity,school or anxiety,1,
iat,nature or serenity | school or anxiety,595.05,j,81,,worry,school or anxiety,nature or serenity or school or anxiety,nature or serenity,school or anxiety,1,
iat,nature or serenity | school or anxiety,687.09,j,82,,teacher,school or anxiety,nature or serenity or school or anxiety,nature or serenity,school or anxiety,1,
iat,nature or serenity | school or anxiety,532.53,j,83,,exam,school or anxiety,nature or serenity or school or anxiety,nature or serenity,school or anxiety,1,
iat,nature or serenity | school or anxiety,554.14,f,84,,ocean,nature or serenity,nature or serenity or school or anxiety,nature or serenity,school or anxiety,1,
iat,nature or serenity | school or anxiety,621.49,j,85,,exam,school or anxiety,nature or serenity or school or anxiety,nature or serenity,school or anxiety,1,
iat,nature or serenity | school or anxiety,564.91,f,86,,breathe,nature or serenity,nature or serenity or school or anxiety,nature or serenity,school or anxiety,1,
iat,nature or serenity | school or anxiety,587.79,j,87,,class,school or anxiety,nature or serenity or school or anxiety,nature or serenity,school or anxiety,1,
iat,nature or serenity | school or anxiety,612.76,j,88,,soothe,nature or serenity,nature or serenity or school or anxiety,nature or serenity,school or anxiety,0,
iat,nature or serenity | school or anxiety,698.99,f,89,,nervous,school or anxiety,nature or serenity or school or anxiety,nature or serenity,school or anxiety,0,
iat,nature or serenity | school or anxiety,663.57,j,90,,essay,school or anxiety,nature or serenity or school or anxiety,nature or serenity,school or anxiety,1,
iat,nature or serenity | school or anxiety,666.55,f,91,,breeze,nature or serenity,nature or serenity or school or anxiety,nature or serenity,school or anxiety,1,
iat,nature or serenity | school or anxiety,695.67,j,92,,panic,school or anxiety,nature or serenity or school or anxiety,nature or serenity,school or anxiety,1,
iat,nature or serenity | school or anxiety,606.3,f,93,,river,nature or serenity,nature or serenity or school or anxiety,nature or serenity,school or anxiety,1,
iat,nature or serenity | school or anxiety,597.52,j,94,,class,school or anxiety,nature or serenity or school or anxiety,nature or serenity,school or anxiety,1,
iat,nature or serenity | school or anxiety,640.69,j,95,,nervous,school or anxiety,nature or serenity or school or anxiety,nature or serenity,school or anxiety,1,
iat,nature or serenity | school or anxiety,430.24,f,96,,river,nature or serenity,nature or serenity or school or anxiety,nature or serenity,school or anxiety,1,
iat,nature or serenity | school or anxiety,526.78,j,97,,teacher,school or anxiety,nature or serenity or school or anxiety,nature or serenity,school or anxiety,1,
iat,nature or serenity | school or anxiety,560.96,j,98,,teacher,school or anxiety,nature or serenity or school or anxiety,nature or serenity,school or anxiety,1,
iat,nature or serenity | school or anxiety,552.92,j,99,,campus,school or anxiety,nature or serenity or school or anxiety,nature or serenity,school or anxiety,1,
iat,nature or serenity | school or anxiety,651.73,j,100,,campus,school or anxiety,nature or serenity or school or anxiety,nature or serenity,school or anxiety,1,
iat,nature or serenity | school or anxiety,826.28,j,101,,homework,school or anxiety,nature or serenity or school or anxiety,nature or serenity,school or anxiety,1,
iat,nature or serenity | school or anxiety,516.27,j,102,,lecture,school or anxiety,nature or serenity or school or anxiety,nature or serenity,school or anxiety,1,
iat,nature or serenity | school or anxiety,576.68,f,103,,ocean,nature or serenity,nature or serenity or school or anxiety,nature or serenity,school or anxiety,1,
iat,nature or serenity | school or anxiety,535.4,f,104,,breeze,nature or serenity,nature or serenity or school or anxiety,nature or serenity,school or anxiety,1,
iat,nature or serenity | school or anxiety,566.91,f,105,,quiet,nature or serenity,nature or serenity or school or anxiety,nature or serenity,school or anxiety,1,
iat,nature or serenity | school or anxiety,480.1,j,106,,stress,school or anxiety,nature or serenity or school or anxiety,nature or serenity,school or anxiety,1,
iat,nature or serenity | school or anxiety,545.76,f,107,,forest,nature or serenity,nature or serenity or school or anxiety,nature or serenity,school or anxiety,1,
iat,nature or serenity | school or anxiety,686.77,j,108,,panic,school or anxiety,nature or serenity or school or anxiety,nature or serenity,school or anxiety,1,
iat,nature or serenity | school or anxiety,726.16,f,109,,mountain,nature or serenity,nature or serenity or school or anxiety,nature or serenity,school or anxiety,1,
iat,nature or serenity | school or anxiety,632.98,f,110,,river,nature or serenity,nature or serenity or school or anxiety,nature or serenity,school or anxiety,1,
iat,nature or serenity | school or anxiety,629.02,j,111,,panic,school or anxiety,nature or serenity or school or anxiety,nature or serenity,school or anxiety,1,
iat,nature or serenity | school or anxiety,381.68,f,112,,relax,nature or serenity,nature or serenity or school or anxiety,nature or serenity,school or anxiety,1,
iat,nature or anxiety | school or serenity,700.64,f,113,,nervous,nature or anxiety,nature or anxiety or school or serenity,nature or anxiety,school or serenity,1,
iat,nature or anxiety | school or serenity,583.55,j,114,,peace,school or serenity,nature or anxiety or school or serenity,nature or anxiety,school or serenity,1,
iat,nature or anxiety | school or serenity,514.14,j,115,,teacher,school or serenity,nature or anxiety or school or serenity,nature or anxiety,school or serenity,1,
iat,nature or anxiety | school or serenity,716.58,f,116,,stress,nature or anxiety,nature or anxiety or school or serenity,nature or anxiety,school or serenity,1,
iat,nature or anxiety | school or serenity,921.88,j,117,,grade,school or serenity,nature or anxiety or school or serenity,nature or anxiety,school or serenity,1,
iat,nature or anxiety | school or serenity,640.42,j,118,,peace,school or serenity,nature or anxiety or school or serenity,nature or anxiety,school or serenity,1,
iat,nature or anxiety | school or serenity,573.56,f,119,,tension,nature or anxiety,nature or anxiety or school or serenity,nature or anxiety,school or serenity,1,
iat,nature or anxiety | school or serenity,607.29,f,120,,meadow,nature or anxiety,nature or anxiety or school or serenity,nature or anxiety,school or serenity,1,
iat,nature or anxiety | school or serenity,817.76,f,121,,alarm,nature or anxiety,nature or anxiety or school or serenity,nature or anxiety,school or serenity,1,
iat,nature or anxiety | school or serenity,698.64,j,122,,campus,school or serenity,nature or anxiety or school or serenity,nature or anxiety,school or serenity,1,
iat,nature or anxiety | school or serenity,469.98,j,123,,peace,school or serenity,nature or anxiety or school or serenity,nature or anxiety,school or serenity,1,
iat,nature or anxiety | school or serenity,491.63,j,124,,gentle,school or serenity,nature or anxiety or school or serenity,nature or anxiety,school or serenity,1,
iat,nature or anxiety | school or serenity,665.59,f,125,,tension,nature or anxiety,nature or anxiety or school or serenity,nature or anxiety,school or serenity,1,
iat,nature or anxiety | school or serenity,743.88,f,126,,worry,nature or anxiety,nature or anxiety or school or serenity,nature or anxiety,school or serenity,1,
iat,nature or anxiety | school or serenity,540.81,j,127,,rest,school or serenity,nature or anxiety or school or serenity,nature or anxiety,school or serenity,1,
iat,nature or anxiety | school or serenity,713.12,f,128,,lake,nature or anxiety,nature or anxiety or school or serenity,nature or anxiety,school or serenity,1,
iat,nature or anxiety | school or serenity,712.47,j,129,,rest,school or serenity,nature or anxiety or school or serenity,nature or anxiety,school or serenity,1,
iat,nature or anxiety | school or serenity,707.31,j,130,,calm,school or serenity,nature or anxiety or school or serenity,nature or anxiety,school or serenity,1,
iat,nature or anxiety | school or serenity,850.26,f,131,,mountain,nature or anxiety,nature or anxiety or school or serenity,nature or anxiety,school or serenity,1,
iat,nature or anxiety | school or serenity,618.11,j,132,,lecture,school or serenity,nature or anxiety or school or serenity,nature or anxiety,school or serenity,1,
iat,nature or anxiety | school or serenity,502.93,f,133,,fear,nature or anxiety,nature or anxiety or school or serenity,nature or anxiety,school or serenity,1,
iat,nature or anxiety | school or serenity,708.4,f,134,,meadow,nature or anxiety,nature or anxiety or school or serenity,nature or anxiety,school or serenity,1,
iat,nature or anxiety | school or serenity,717.14,j,135,,homework,school or serenity,nature or anxiety or school or serenity,nature or anxiety,school or serenity,1,
iat,nature or anxiety | school or serenity,731.75,f,136,,meadow,nature or anxiety,nature or anxiety or school or serenity,nature or anxiety,school or serenity,1,
iat,nature or anxiety | school or serenity,611.21,f,137,,nervous,nature or anxiety,nature or anxiety or school or serenity,nature or anxiety,school or serenity,1,
iat,nature or anxiety | school or serenity,526.42,f,138,,nervous,nature or anxiety,nature or anxiety or school or serenity,nature or anxiety,school or serenity,1,
iat,nature or anxiety | school or serenity,689.67,f,139,,stress,nature or anxiety,nature or anxiety or school or serenity,nature or anxiety,school or serenity,1,
iat,nature or anxiety | school or serenity,831.63,f,140,,tree,nature or anxiety,nature or anxiety or school or serenity,nature or anxiety,school or serenity,1,
iat,nature or anxiety | school or serenity,515.54,f,141,,mountain,nature or anxiety,nature or anxiety or school or serenity,nature or anxiety,school or serenity,1,
iat,nature or anxiety | school or serenity,271.33,j,142,,rest,school or serenity,nature or anxiety or school or serenity,nature or anxiety,school or serenity,1,
iat,nature or anxiety | school or serenity,694.57,j,143,,essay,school or serenity,nature or anxiety or school or serenity,nature or anxiety,school or serenity,1,
iat,nature or anxiety | school or serenity,519.06,j,144,,tree,nature or anxiety,nature or anxiety or school or serenity,nature or anxiety,school or serenity,0,
iat,nature or anxiety | school or serenity,786.32,f,145,,calm,school or serenity,nature or anxiety or school or serenity,nature or anxiety,school or serenity,0,
iat,nature or anxiety | school or serenity,756.07,f,146,,exam,school or serenity,nature or anxiety or school or serenity,nature or anxiety,school or serenity,0,
iat,nature or anxiety | school or serenity,602.14,j,147,,quiet,school or serenity,nature or anxiety or school or serenity,nature or anxiety,school or serenity,1,
iat,nature or anxiety | school or serenity,756.88,f,148,,stress,nature or anxiety,nature or anxiety or school or serenity,nature or anxiety,school or serenity,1,
iat,nature or anxiety | school or serenity,833.07,j,149,,rest,school or serenity,nature or anxiety or school or serenity,nature or anxiety,school or serenity,1,
iat,nature or anxiety | school or serenity,793.0,f,150,,exam,school or serenity,nature or anxiety or school or serenity,nature or anxiety,school or serenity,0,
iat,nature or anxiety | school or serenity,681.71,f,151,,rest,school or serenity,nature or anxiety or school or serenity,nature or anxiety,school or serenity,0,
iat,nature or anxiety | school or serenity,654.7,j,152,,rest,school or serenity,nature or anxiety or school or serenity,nature or anxiety,school or serenity,1,
iat,nature or anxiety | school or serenity,638.33,f,153,,gentle,school or serenity,nature or anxiety or school or serenity,nature or anxiety,school or serenity,0,
iat,nature or anxiety | school or serenity,650.46,j,154,,quiet,school or serenity,nature or anxiety or school or serenity,nature or anxiety,school or serenity,1,
iat,nature or anxiety | school or serenity,818.34,j,155,,exam,school or serenity,nature or anxiety or school or serenity,nature or anxiety,school or serenity,1,
iat,nature or anxiety | school or serenity,658.38,j,156,,gentle,school or serenity,nature or anxiety or school or serenity,nature or anxiety,school or serenity,1,
iat,nature or anxiety | school or serenity,651.21,j,157,,peace,school or serenity,nature or anxiety or school or serenity,nature or anxiety,school or serenity,1,
iat,nature or anxiety | school or serenity,829.66,f,158,,tree,nature or anxiety,nature or anxiety or school or serenity,nature or anxiety,school or serenity,1,
iat,nature or anxiety | school or serenity,610.93,f,159,,panic,nature or anxiety,nature or anxiety or school or serenity,nature or anxiety,school or serenity,1,
iat,nature or anxiety | school or serenity,632.88,f,160,,tension,nature or anxiety,nature or anxiety or school or serenity,nature or anxiety,school or serenity,1,
iat,nature or anxiety | school or serenity,757.96,j,161,,quiet,school or serenity,nature or anxiety or school or serenity,nature or anxiety,school or serenity,1,
iat,nature or anxiety | school or serenity,762.99,j,162,,gentle,school or serenity,nature or anxiety or school or serenity,nature or anxiety,school or serenity,1,
iat,nature or anxiety | school or serenity,836.09,f,163,,lake,nature or anxiety,nature or anxiety or school or serenity,nature or anxiety,school or serenity,1,
iat,nature or anxiety | school or serenity,544.11,f,164,,lake,nature or anxiety,nature or anxiety or school or serenity,nature or anxiety,school or serenity,1,
iat,nature or anxiety | school or serenity,544.13,j,165,,breeze,nature or anxiety,nature or anxiety or school or serenity,nature or anxiety,school or serenity,0,
iat,nature or anxiety | school or serenity,736.5,f,166,,tree,nature or anxiety,nature or anxiety or school or serenity,nature or anxiety,school or serenity,1,
iat,nature or anxiety | school or serenity,667.32,f,167,,river,nature or anxiety,nature or anxiety or school or serenity,nature or anxiety,school or serenity,1,
iat,nature or anxiety | school or serenity,573.33,f,168,,river,nature or anxiety,nature or anxiety or school or serenity,nature or anxiety,school or serenity,1,
iat,nature or anxiety | school or serenity,632.26,j,169,,peace,school or serenity,nature or anxiety or school or serenity,nature or anxiety,school or serenity,1,
iat,nature or anxiety | school or serenity,659.62,f,170,,tension,nature or anxiety,nature or anxiety or school or serenity,nature or anxiety,school or serenity,1,
iat,nature or anxiety | school or serenity,770.66,j,171,,peace,school or serenity,nature or anxiety or school or serenity,nature or anxiety,school or serenity,1,
iat,nature or anxiety | school or serenity,598.65,j,172,,soothe,school or serenity,nature or anxiety or school or serenity,nature or anxiety,school or serenity,1,
iat,nature or anxiety | school or serenity,758.84,f,173,,unease,nature or anxiety,nature or anxiety or school or serenity,nature or anxiety,school or serenity,1,
iat,nature or anxiety | school or serenity,809.93,f,174,,stress,nature or anxiety,nature or anxiety or school or serenity,nature or anxiety,school or serenity,1,
iat,nature or anxiety | school or serenity,623.1,f,175,,tree,nature or anxiety,nature or anxiety or school or serenity,nature or anxiety,school or serenity,1,
iat,nature or anxiety | school or serenity,637.95,j,176,,gentle,school or serenity,nature or anxiety or school or serenity,nature or anxiety,school or serenity,1,
Questionnaire,,,"{""question1"": 3, ""question2"": ""3"", ""question3"": ""3"", ""question4"": ""1"", ""question5"": 3, ""question6"": null, ""question7"": 1}",177,,,,,,,,Q1-Q7
